time, aquisitionDuration, accX, accY, accZ, gyroX, gyroY, gyroZ
0.000,0.001301,-22.677345,29.982735,69.473007,-15.820000,12.600000,11.760000
0.002,0.001178,-33.214149,38.145047,65.212328,-10.570000,-82.250000,42.770000
0.004,0.001139,-35.871089,42.961051,64.230936,-14.980000,-28.070000,0.140000
0.006,0.001141,-31.471579,46.307359,57.648426,-61.320000,-72.030000,15.050000
0.008,0.001142,-21.767762,49.342495,47.485030,2.800000,-341.530000,97.650000
0.010,0.001139,-10.689996,47.532903,46.120656,-74.550000,-411.530000,181.020000
0.012,0.001145,-2.570769,51.391451,39.523784,-127.050000,-470.610000,207.620000
0.014,0.001138,-1.019691,47.714820,45.895653,-86.450000,-473.480000,164.710000
0.016,0.001140,-7.554328,47.829714,30.786998,-95.270000,-503.090000,85.120000
0.018,0.001143,-16.492180,46.197252,36.383328,-145.390000,-403.340000,-220.500000
0.020,0.001139,-23.615652,45.201498,29.609327,-58.310000,-408.940000,-191.310000
0.022,0.001140,-28.484316,42.410514,28.963044,-3.780000,-411.320000,-98.070000
0.024,0.001140,-29.652412,39.906766,23.136924,110.810000,-397.880000,4.060000
0.026,0.001137,-28.378996,34.884909,20.341153,201.600000,-373.380000,87.010000
0.028,0.001142,-25.214604,30.461463,16.506541,276.990000,-147.490000,96.950000
0.030,0.001137,-22.370959,26.143336,10.383610,308.420000,-43.890000,23.310000
0.032,0.001139,-20.891690,24.161402,14.495884,294.280000,71.120000,-67.970000
0.034,0.001137,-18.790074,19.216142,14.424075,457.940000,139.090000,-88.270000
0.036,0.001137,-18.589008,14.538969,8.957001,516.600000,186.760000,-64.330000
0.038,0.001155,-18.713478,10.785742,9.009661,478.240000,228.200000,2.310000
0.040,0.001150,-15.826748,9.622433,7.305389,464.170000,259.280000,33.390000
0.042,0.001151,-10.843189,9.205939,8.722424,442.470000,312.130000,36.260000
0.044,0.001149,-6.280911,8.655402,11.010744,448.770000,353.010000,-2.240000
0.046,0.001153,-2.858006,8.664977,11.058617,463.400000,416.290000,-90.020000
0.048,0.001152,-1.268629,8.363378,11.369790,479.850000,457.380000,-150.220000
0.050,0.001153,1.776081,10.211268,7.324538,486.010000,493.010000,-227.430000
0.052,0.001150,4.255892,11.527770,5.864418,496.510000,523.320000,-261.940000
0.054,0.001150,3.619184,9.857010,7.061238,535.360000,524.860000,-269.290000
0.056,0.001151,-0.234577,11.762347,8.387315,520.730000,533.470000,-252.910000
0.058,0.001151,-6.022398,11.795858,11.341066,509.600000,556.710000,-276.290000
0.060,0.001150,-10.891062,14.337904,10.594251,524.930000,592.830000,-326.970000
0.062,0.001151,-4.509618,21.585846,15.534724,366.800000,667.660000,-403.200000
0.064,0.001152,-4.945260,26.794406,36.163113,292.180000,744.240000,-515.900000
0.066,0.001151,-13.299064,27.421540,33.305107,608.930000,869.050000,-612.990000
0.068,0.001150,-18.474114,27.134303,26.823130,683.690000,921.550000,-626.220000
0.070,0.001149,-22.280001,27.076856,36.675352,681.030000,976.220000,-500.710000
0.072,0.001150,-22.528940,20.211896,45.024368,918.820000,1009.610000,-344.960000
0.074,0.002019,-19.541677,15.079932,35.507256,1033.550000,992.180000,-10.850000
0.076,0.001283,-12.303310,8.645828,37.345571,997.290000,986.160000,133.770000
0.078,0.001167,-3.628758,1.354800,40.797200,1035.650000,998.130000,162.050000
0.080,0.001151,4.519192,-3.705355,34.808313,1099.140000,1025.010000,107.590000
0.082,0.001151,10.417121,-7.884650,29.839116,1063.440000,1062.180000,-50.680000
0.084,0.001153,14.184711,-11.795858,29.034853,1006.810000,1119.720000,-207.270000
0.086,0.001151,15.209189,-14.811844,27.105579,956.480000,1162.070000,-325.780000
0.088,0.001151,14.692162,-16.731544,22.811389,903.420000,1184.120000,-434.210000
0.090,0.001149,14.395351,-18.354432,20.427324,801.010000,1181.390000,-425.880000
0.092,0.001151,14.807057,-19.795403,18.723052,728.140000,1150.100000,-369.110000
0.094,0.001150,16.990057,-21.040096,17.090590,636.720000,1098.650000,-284.550000
0.096,0.001369,20.446473,-22.610323,15.381531,555.170000,1036.000000,-207.760000
0.098,0.001270,24.625768,-23.457672,12.930443,453.180000,982.660000,-166.880000
0.100,0.001315,28.441230,-23.572567,10.249566,373.240000,940.030000,-182.840000
0.102,0.001158,31.476366,-23.630014,8.157525,288.820000,879.970000,-211.330000
0.104,0.001152,33.161489,-23.060328,6.146868,174.230000,838.180000,-256.900000
0.106,0.001154,33.745537,-21.758188,3.973442,91.140000,787.430000,-318.430000
0.108,0.001151,33.434364,-20.106576,2.235660,7.770000,710.640000,-335.300000
0.110,0.001153,32.735421,-18.052833,1.354800,-101.780000,643.930000,-336.910000
0.112,0.001185,31.964669,-15.726215,1.038840,-178.010000,541.940000,-284.620000
0.114,0.001154,31.366259,-12.298522,1.335651,-266.560000,461.230000,-241.780000
0.116,0.001150,31.251364,-10.857551,1.412248,-324.520000,378.630000,-165.760000
0.118,0.001153,31.256151,-8.349016,2.115978,-395.710000,272.790000,-129.500000
0.120,0.001153,31.241789,-5.735161,2.633004,-439.250000,198.450000,-88.060000
0.122,0.001155,31.045511,-2.690451,3.197903,-479.500000,108.150000,-84.420000
0.124,0.001152,30.332206,0.392557,4.083550,-520.030000,49.210000,-86.730000
0.126,0.001152,29.030066,3.303223,5.304306,-544.110000,-7.770000,-98.420000
0.128,0.001154,26.918875,6.098995,6.922407,-563.010000,-74.830000,-109.620000
0.130,0.001150,24.252360,9.043172,8.516571,-569.380000,-123.620000,-115.570000
0.132,0.001152,21.523611,11.269257,11.063404,-568.540000,-182.420000,-113.540000
0.134,0.001150,18.742201,13.878325,12.719803,-546.350000,-222.880000,-99.750000
0.136,0.001152,15.587384,15.975153,13.385235,-517.860000,-270.760000,-88.410000
0.138,0.001151,12.590546,17.578892,15.707066,-485.310000,-300.790000,-69.720000
0.140,0.001152,9.445303,18.976778,17.224633,-443.800000,-323.610000,-56.980000
0.142,0.001152,6.156442,20.379451,16.698033,-399.630000,-345.590000,-42.490000
0.144,0.001152,3.231414,21.250736,16.951758,-355.390000,-355.460000,-33.950000
0.146,0.001151,0.038298,22.361385,16.875162,-318.360000,-358.190000,-26.950000
0.148,0.001153,-2.776622,22.806602,17.018780,-263.340000,-352.800000,-23.800000
0.150,0.001152,-5.313881,23.117775,16.779416,-221.270000,-342.300000,-22.050000
0.152,0.001154,-7.429859,23.481608,16.444307,-168.280000,-322.280000,-20.790000
0.154,0.001153,-9.574560,23.586929,15.745364,-126.420000,-302.540000,-20.300000
0.156,0.001152,-11.178299,23.333203,15.118230,-86.940000,-272.650000,-18.200000
0.158,0.001152,-12.537886,22.969369,14.984186,-36.610000,-247.240000,-18.760000
0.160,0.001152,-13.629386,22.299150,14.883654,1.400000,-202.160000,-11.200000
0.162,0.001152,-14.251733,21.504462,14.165562,51.590000,-181.790000,-10.430000
0.164,0.001153,-14.711311,20.671475,13.557577,84.980000,-151.830000,-2.660000
0.166,0.001155,-14.668226,19.508166,12.796399,118.650000,-110.390000,-1.820000
0.168,0.001153,-14.400138,18.349644,11.958625,158.620000,-79.520000,0.490000
0.170,0.001152,-13.739494,16.975695,11.116064,184.380000,-38.290000,0.910000
0.172,0.001151,-12.782038,15.549085,10.417121,215.250000,-7.910000,-0.350000
0.174,0.001151,-11.896391,14.002794,9.871371,235.410000,21.350000,-4.340000
0.176,0.001150,-10.599038,12.475652,9.268174,257.600000,58.660000,-8.470000
0.178,0.001152,-9.416580,10.843189,8.784659,270.550000,83.020000,-14.560000
0.180,0.001152,-8.176674,9.249025,8.641040,280.350000,112.980000,-18.620000
0.182,0.001153,-6.673468,7.635712,8.664977,286.720000,130.340000,-19.390000
0.184,0.001152,-5.074517,6.137293,8.143163,288.680000,144.900000,-21.910000
0.186,0.001152,-3.504289,5.021857,7.405922,286.300000,158.690000,-19.320000
0.188,0.001150,-1.828741,4.954835,2.374491,282.450000,164.570000,-17.570000
0.190,0.001149,26.349189,-12.456503,31.327960,592.760000,54.460000,266.910000
0.192,0.001151,44.942985,-12.652781,-1.632462,737.380000,-136.920000,725.690000
0.194,0.001150,60.080364,-24.788536,-2.992050,559.580000,-497.350000,1268.750000
0.196,0.001151,65.422968,-35.004591,-6.678256,428.400000,-552.370000,1358.210000
0.198,0.001150,67.184688,-38.264729,-9.426154,296.310000,-660.310000,923.580000
0.200,0.001153,66.141060,-37.886534,-11.149575,52.710000,-581.000000,398.230000
0.202,0.001150,58.514923,-37.570573,-6.845810,-124.950000,-608.230000,-209.580000
0.204,0.001153,45.670651,-37.355146,1.618101,-288.890000,-620.130000,-432.810000
0.206,0.001150,29.934862,-35.047677,5.376115,-386.330000,-674.730000,-400.400000
0.208,0.001255,17.057079,-31.725305,6.362295,-470.470000,-843.290000,-85.120000
0.211,0.001159,10.182545,-29.235919,8.277207,-634.900000,-928.620000,282.030000
0.213,0.001154,10.479356,-27.177389,12.097457,-752.640000,-1064.840000,699.090000
0.215,0.001152,15.132592,-25.152369,16.190581,-919.310000,-1133.510000,897.190000
0.217,0.001154,21.758188,-22.165106,21.102330,-1054.340000,-1165.570000,884.240000
0.219,0.001152,26.167272,-18.268260,28.943895,-1173.690000,-1118.320000,715.050000
0.221,0.001154,24.913005,-13.265553,34.133306,-1313.410000,-1038.380000,438.760000
0.223,0.001149,17.669850,-6.079846,37.369508,-1407.770000,-938.070000,39.410000
0.225,0.001151,9.148492,2.106403,38.317389,-1535.520000,-860.720000,-191.100000
0.227,0.001152,-0.646283,5.873993,58.974502,-1546.930000,-826.350000,-329.840000
0.229,0.001154,-9.292110,15.529936,54.962762,-1187.620000,-800.310000,-292.320000
0.231,0.001151,-15.850684,26.143336,36.115240,-1163.540000,-801.360000,-107.800000
0.233,0.001154,-16.559202,30.207737,41.879125,-1155.840000,-817.040000,60.060000
0.235,0.001152,-14.735248,32.754570,43.942443,-992.670000,-798.350000,187.810000
0.237,0.001198,-10.967658,35.550341,40.126981,-898.310000,-743.190000,249.760000
0.239,0.001322,-5.773460,37.403019,35.210444,-750.610000,-664.300000,150.010000
0.241,0.001160,-2.561195,37.417380,34.717355,-657.510000,-588.420000,18.410000
0.243,0.001154,-0.746816,38.025365,30.743912,-545.230000,-482.370000,-115.850000
0.245,0.001153,-0.584048,37.848236,28.776340,-418.460000,-438.690000,-191.380000
0.247,0.001154,-0.962243,35.832791,27.081643,-322.980000,-411.740000,-178.360000
0.249,0.001156,-0.545750,33.716813,24.271510,-202.440000,-432.810000,-90.930000
0.251,0.001153,0.799476,30.327419,19.139545,-107.380000,-450.170000,64.890000
0.253,0.001154,2.599493,24.242786,18.454964,-16.590000,-479.430000,159.670000
0.255,0.001152,5.821332,17.995386,15.845897,46.060000,-484.400000,183.540000
0.257,0.001154,8.253271,12.384693,11.858093,65.870000,-458.780000,120.750000
0.259,0.001263,9.742115,6.161229,9.024023,82.040000,-413.210000,-21.420000
0.261,0.001156,7.027727,3.240989,7.721883,74.130000,-374.430000,-127.400000
0.263,0.001153,4.117061,0.445217,4.796855,42.420000,-348.320000,-197.120000
0.265,0.001155,-1.373949,-0.828199,5.098453,7.770000,-338.940000,-217.980000
0.267,0.001152,-5.481436,-1.512780,4.332488,-27.720000,-336.560000,-160.440000
0.269,0.001152,-8.923490,-1.814379,4.964409,-70.770000,-332.290000,-72.170000
0.271,0.001152,-9.785200,-1.110649,2.762261,-78.820000,-335.300000,43.470000
0.273,0.001154,-9.272961,-2.159063,3.489927,-115.290000,-307.300000,79.940000
0.275,0.001153,-8.731999,-0.861710,3.920782,-140.910000,-276.990000,37.030000
0.277,0.001153,-9.268174,0.976605,3.992592,-168.280000,-199.290000,-44.310000
0.279,0.001154,-12.140542,3.298436,6.194740,-186.620000,-133.070000,-160.440000
0.281,0.001154,-14.270882,5.931440,9.708604,-202.860000,-49.700000,-224.630000
0.283,0.001153,-17.487934,10.488930,9.718178,-189.490000,11.830000,-245.630000
0.285,0.001152,-18.450177,14.826206,10.096374,-179.970000,52.640000,-203.490000
0.287,0.001152,-16.913460,18.416666,13.442682,-141.610000,90.370000,-125.370000
0.289,0.001153,-12.159691,21.327332,13.830452,-93.450000,103.460000,-4.060000
0.291,0.001152,-5.266008,23.314054,15.041634,-38.080000,119.210000,64.260000
0.293,0.001152,0.306386,24.271510,16.147495,44.870000,133.280000,93.520000
0.295,0.001150,6.280911,24.491724,16.659734,110.670000,160.300000,62.930000
0.297,0.001150,10.982020,23.950762,16.305476,199.500000,185.780000,9.800000
0.299,0.001154,11.101702,22.792240,16.042175,258.930000,203.980000,-65.450000
0.301,0.001151,10.613400,20.968286,15.017697,316.470000,221.200000,-100.450000
0.303,0.001150,9.167641,18.814010,14.108114,379.960000,222.040000,-110.950000
0.305,0.001153,7.956459,16.200156,13.533641,418.600000,217.700000,-93.520000
0.307,0.001153,7.458582,13.399597,12.576185,463.890000,211.960000,-70.000000
0.309,0.001149,7.741032,10.862338,11.508621,490.770000,207.480000,-49.350000
0.311,0.001162,7.932523,8.368165,9.517113,513.310000,208.530000,-52.360000
0.313,0.001177,8.114440,8.655402,1.455333,523.740000,213.500000,-85.610000
0.315,0.001154,7.583052,4.423447,5.021857,539.000000,224.840000,-127.960000
0.317,0.001150,3.758015,0.900009,6.247400,531.440000,236.810000,-170.240000
0.319,0.001154,-0.536175,0.971818,2.589918,495.110000,262.570000,-232.190000
0.321,0.001152,-4.351638,0.000000,8.641040,414.330000,307.930000,-282.240000
0.323,0.001150,-9.871371,3.102157,6.965492,405.300000,354.830000,-351.890000
0.325,0.001153,-13.423533,3.647907,12.758101,377.580000,430.920000,-394.100000
0.327,0.001151,-17.171973,6.352721,13.054913,371.000000,489.370000,-429.310000
0.329,0.001154,-20.781582,9.914457,12.844272,373.730000,568.470000,-419.860000
0.331,0.001148,-22.777878,11.953838,20.580517,330.470000,628.110000,-402.850000
0.333,0.001150,-27.287496,11.594792,20.523069,457.450000,688.450000,-356.650000
0.335,0.001368,-22.437981,16.631011,14.060241,410.340000,773.920000,-282.380000
0.337,0.001287,-20.891690,16.520903,28.632722,370.370000,811.300000,-232.960000
0.339,0.001166,-19.958170,13.615024,30.901892,532.000000,868.630000,-195.860000
0.341,0.001151,-17.253357,14.582055,18.498050,566.160000,914.760000,-168.980000
0.343,0.001146,-14.318754,11.163937,30.485399,524.860000,975.450000,-147.910000
0.345,0.001153,-11.072979,7.209644,35.947686,669.060000,1003.450000,-149.170000
0.347,0.001144,-7.717095,4.083550,26.473658,743.330000,1042.580000,-109.480000
0.349,0.001201,-4.217594,0.971818,25.765141,681.100000,1057.000000,-84.490000
0.351,0.001442,0.574474,-3.279287,29.671561,663.040000,1069.880000,-62.440000
0.353,0.001624,5.184624,-6.180378,25.329498,692.790000,1093.610000,-73.360000
0.355,0.001439,9.684667,-7.989970,20.977861,656.530000,1096.130000,-97.930000
0.357,0.001617,13.519279,-9.737328,20.288493,581.280000,1101.730000,-135.170000
0.359,0.001437,16.765055,-11.408088,19.714019,558.110000,1088.990000,-177.730000
0.361,0.001225,19.632635,-12.317671,16.310263,513.660000,1081.220000,-201.670000
0.363,0.001187,22.198617,-12.643206,13.969283,453.320000,1042.510000,-207.760000
0.365,0.001172,24.869920,-12.978316,12.667143,367.850000,1007.580000,-199.360000
0.367,0.001228,27.833246,-13.035763,11.398514,312.270000,944.650000,-181.580000
0.369,0.001222,30.777423,-12.925656,9.579347,237.720000,886.690000,-160.230000
0.371,0.001201,33.836495,-12.466077,7.980396,171.850000,825.230000,-142.170000
0.373,0.001220,36.431201,-11.853305,7.324538,93.170000,738.850000,-133.350000
0.375,0.001223,38.652499,-10.867126,5.979313,41.720000,673.050000,-137.550000
0.377,0.001254,40.447729,-9.670306,4.437809,-26.670000,578.130000,-141.260000
0.379,0.001197,41.208906,-8.310718,3.647907,-77.350000,504.630000,-147.770000
0.381,0.001211,41.462632,-6.697405,3.418118,-121.590000,402.710000,-147.140000
0.383,0.001195,41.251992,-4.997920,2.992050,-170.660000,323.400000,-141.960000
0.385,0.001152,40.600922,-3.140456,2.929815,-202.370000,242.970000,-122.780000
0.387,0.001148,39.667402,-1.402673,3.360671,-232.610000,135.310000,-105.840000
0.389,0.001145,38.341326,0.258513,4.322914,-262.920000,56.980000,-88.340000
0.391,0.001145,36.541308,1.737783,5.266008,-281.750000,-18.060000,-67.340000
0.393,0.001146,33.630642,3.135668,6.424530,-295.260000,-108.570000,-61.810000
0.395,0.001144,29.719434,4.184083,7.477731,-298.130000,-166.810000,-65.240000
0.397,0.001145,25.243327,5.055368,8.157525,-302.890000,-230.300000,-76.370000
0.399,0.001149,19.814552,6.084633,8.899554,-312.200000,-268.660000,-84.560000
0.401,0.001151,14.165562,6.975067,9.924031,-317.240000,-308.770000,-90.020000
0.403,0.001146,7.664435,8.277207,10.646911,-318.710000,-332.010000,-81.760000
0.405,0.001146,4.160146,9.344771,11.460748,-319.620000,-350.070000,-57.190000
0.407,0.001145,-0.157980,10.464994,12.504375,-317.520000,-365.400000,-29.750000
0.409,0.001145,-4.830366,11.551707,13.634173,-304.010000,-369.390000,15.680000
0.411,0.001144,-6.371870,12.504375,13.677259,-287.280000,-361.200000,23.240000
0.413,0.001143,-9.024023,13.619812,13.739494,-272.720000,-346.220000,29.960000
0.415,0.001143,-10.776167,14.419287,14.586842,-259.140000,-322.840000,18.550000
0.416,0.001213,-12.705441,15.352807,15.194827,-233.310000,-282.380000,2.310000
0.419,0.001156,-14.711311,16.248028,15.400680,-209.930000,-247.310000,-21.420000
0.421,0.001146,-9.837860,12.169266,29.039640,-175.280000,-188.650000,-6.930000
0.423,0.001142,2.470236,12.049584,11.513408,151.550000,-264.670000,216.860000
0.425,0.001142,19.010289,6.611234,9.201152,111.300000,-438.340000,595.490000
0.427,0.001147,35.545554,-2.288320,14.036305,133.910000,-512.190000,899.780000
0.429,0.001146,48.648339,-9.249025,7.616562,149.030000,-710.640000,1140.160000
0.431,0.001143,61.147927,-15.836322,4.490469,46.130000,-821.590000,1148.070000
0.433,0.001147,70.133652,-22.720431,7.688372,-3.780000,-915.460000,987.000000
0.435,0.001146,73.867730,-28.536976,7.697946,-72.940000,-1002.960000,822.570000
0.437,0.001145,72.225693,-33.510960,8.248483,-198.310000,-1062.530000,699.720000
0.439,0.001148,66.026166,-39.188674,11.489472,-326.200000,-1147.790000,622.720000
0.441,0.001146,57.284592,-41.687634,16.812927,-541.170000,-1264.690000,625.240000
0.443,0.001146,51.410600,-46.000974,23.376288,-701.470000,-1358.070000,603.750000
0.445,0.001145,47.944609,-45.632353,27.512498,-899.010000,-1397.620000,527.170000
0.447,0.001145,48.231846,-44.813728,34.717355,-1141.280000,-1418.480000,353.990000
0.449,0.001145,46.039272,-42.917965,40.811562,-1294.090000,-1396.570000,39.130000
0.451,0.001147,40.964755,-38.786543,49.826010,-1465.870000,-1376.900000,-190.890000
0.453,0.001145,33.065743,-33.171063,56.370222,-1549.590000,-1375.570000,-396.760000
0.455,0.001145,20.436898,-27.670478,57.495233,-1648.710000,-1391.740000,-472.430000
0.457,0.001144,10.326163,-20.288493,59.879298,-1731.800000,-1401.750000,-464.310000
0.459,0.001144,3.020774,-15.707066,68.697468,-1811.110000,-1440.670000,-404.180000
0.461,0.001142,-7.621350,-10.962871,85.007731,-1910.650000,-1443.190000,-341.040000
0.463,0.001142,-20.929988,1.737783,78.262453,-1905.190000,-1420.790000,-275.030000
0.465,0.001143,-30.447101,16.161857,83.672080,-1900.920000,-1350.090000,-229.180000
0.467,0.001291,-43.727016,36.163113,73.604430,-1690.850000,-1245.860000,-169.680000
0.469,0.001153,-156.840867,153.331791,32.591802,-1632.470000,-998.410000,922.530000
0.471,0.001148,-156.735547,86.956154,151.900394,-1224.370000,-1145.550000,2293.480000
0.473,0.001145,33.242872,82.346003,0.143618,-406.000000,-476.280000,2139.620000
0.475,0.001143,98.416902,64.503811,29.604540,-636.020000,164.640000,426.720000
0.477,0.001146,121.702232,40.160492,40.682305,-294.000000,602.770000,-1861.860000
0.479,0.001147,83.724740,47.015877,18.052833,-204.680000,858.900000,-2293.480000
0.481,0.001145,35.746620,47.815353,38.441858,19.530000,667.590000,-2292.010000
0.483,0.001145,-5.423988,49.079195,22.356598,330.190000,81.550000,-1029.140000
0.485,0.001145,-51.693049,4.557491,-19.335824,365.540000,-223.300000,165.620000
0.487,0.001144,-73.183149,-63.211245,-18.234750,69.230000,-299.040000,710.920000
0.489,0.001145,-13.452257,-45.460011,-6.740490,-50.260000,-82.670000,487.970000
0.491,0.001145,16.219305,-1.651612,0.861710,-91.630000,-70.350000,337.470000
0.493,0.001144,25.678970,8.277207,5.615479,-86.730000,-97.160000,336.490000
0.495,0.001144,20.140087,10.785742,7.602201,-81.550000,-102.480000,263.900000
0.497,0.001145,7.841565,10.000628,9.124556,-66.290000,-76.370000,150.010000
0.499,0.001145,2.628217,10.000628,10.192119,-26.040000,4.900000,33.950000
0.501,0.001144,4.849515,9.727753,10.005415,6.090000,40.530000,-75.250000
0.503,0.001144,6.879321,6.587297,9.124556,40.810000,95.550000,-150.640000
0.505,0.001142,7.171345,3.135668,5.591543,63.910000,97.930000,-175.630000
0.507,0.001144,8.004332,0.157980,4.844727,50.890000,105.490000,-180.460000
0.509,0.001145,8.138376,-0.885647,4.241530,32.620000,100.310000,-152.950000
0.511,0.001143,7.468157,-0.335110,4.854302,15.820000,96.670000,-126.000000
0.513,0.001197,6.903258,1.651612,6.333571,2.100000,91.000000,-105.840000
0.515,0.001148,6.855385,4.681960,7.846352,4.970000,91.770000,-117.040000
0.517,0.001145,4.571852,8.506997,9.684667,24.360000,106.470000,-112.280000
0.519,0.001147,4.370787,10.675634,9.172428,61.320000,119.210000,-113.260000
0.521,0.001143,0.526601,12.341608,9.943181,90.090000,137.970000,-142.170000
0.523,0.001145,-3.011199,12.662356,9.301685,136.010000,161.280000,-120.540000
0.525,0.001144,-7.358049,14.821419,12.078307,171.640000,175.350000,-69.720000
0.527,0.001144,-8.511784,15.635256,9.421367,208.740000,185.710000,7.840000
0.529,0.001145,-8.679339,15.850684,11.312343,260.120000,202.650000,62.790000
0.531,0.001143,-9.555411,20.288493,6.721341,322.630000,232.680000,110.740000
0.533,0.001144,-12.475652,20.130512,11.321917,443.240000,213.010000,164.150000
0.535,0.001142,-12.695867,17.444848,7.492093,486.430000,244.370000,218.190000
0.537,0.001145,-8.808595,16.324625,6.788363,446.600000,294.560000,155.610000
0.539,0.001144,-8.435187,13.916623,10.977233,480.970000,379.050000,-23.520000
0.541,0.001141,-4.868664,18.632094,8.593168,454.370000,485.170000,-221.060000
0.543,0.001378,-8.214972,29.106662,18.938480,296.730000,608.440000,-512.190000
0.545,0.001255,-15.367169,32.845528,23.476821,388.080000,706.440000,-625.240000
0.547,0.001160,-23.371501,39.222185,32.572653,508.410000,761.390000,-591.990000
0.549,0.001149,-30.135928,42.400939,39.327505,517.720000,799.960000,-432.740000
0.551,0.001147,-29.331665,43.061584,51.946775,718.480000,843.010000,-272.090000
0.553,0.001148,-28.110908,34.817887,47.298326,1051.890000,883.050000,-72.450000
0.555,0.001143,-23.089051,32.074776,49.586646,988.680000,874.440000,109.200000
0.557,0.001196,-16.942184,26.392275,58.715989,1214.640000,930.860000,176.820000
0.559,0.001341,-11.484685,13.820877,56.887248,1441.160000,1001.560000,195.300000
0.561,0.001231,-6.802725,7.511242,49.945692,1470.980000,1026.620000,182.070000
0.563,0.001199,-1.962785,-1.172884,59.434081,1472.940000,1064.840000,128.800000
0.565,0.001146,1.555866,-8.167100,56.078198,1532.300000,1120.070000,79.520000
0.567,0.001145,5.127177,-14.495884,49.347282,1546.090000,1170.610000,27.020000
0.569,0.001145,7.779330,-18.823585,45.680226,1486.170000,1187.690000,-30.240000
0.571,0.001145,10.876700,-23.371501,43.856272,1415.820000,1218.280000,-60.830000
0.573,0.001144,13.916623,-26.990685,38.159409,1376.410000,1222.270000,-84.280000
0.575,0.001145,17.363465,-29.317303,31.318386,1282.050000,1221.080000,-96.250000
0.577,0.001144,21.025734,-31.323173,27.397603,1143.170000,1212.750000,-117.880000
0.579,0.001146,24.587470,-33.185425,23.673100,1052.870000,1185.450000,-149.590000
0.581,0.001144,28.249739,-34.521076,19.556039,922.530000,1175.300000,-181.650000
0.583,0.001145,31.653495,-35.263104,15.731002,813.190000,1140.790000,-223.370000
0.585,0.001146,34.669482,-35.445021,11.949051,690.830000,1092.140000,-253.050000
0.587,0.001145,36.953014,-35.109912,9.052746,532.770000,1040.270000,-276.010000
0.589,0.001144,38.906225,-34.185966,5.936227,420.770000,963.690000,-290.500000
0.591,0.001142,40.687093,-32.644462,2.594706,266.840000,897.470000,-288.120000
0.593,0.001145,42.185511,-30.882743,-0.038298,151.550000,823.270000,-272.930000
0.595,0.001284,43.358395,-29.044428,-2.125552,7.000000,715.330000,-256.410000
0.597,0.001310,44.521704,-26.406636,-2.800559,-97.370000,599.830000,-234.080000
0.599,0.001301,44.919048,-24.065657,-2.786197,-220.990000,513.380000,-221.060000
0.601,0.001153,45.019581,-21.360843,-2.431938,-305.760000,424.270000,-210.070000
0.603,0.001146,44.531279,-18.469326,-1.728208,-384.230000,320.320000,-201.810000
0.605,0.001144,43.205202,-15.573022,-0.057447,-476.070000,223.090000,-194.390000
0.607,0.001277,41.668485,-12.308097,1.871826,-538.300000,120.190000,-182.560000
0.609,0.001321,39.236547,-8.655402,4.490469,-605.780000,29.260000,-167.790000
0.611,0.001265,36.771098,-5.567607,6.721341,-643.790000,-47.740000,-145.950000
0.613,0.001156,34.037561,-2.427151,9.153279,-676.410000,-144.130000,-127.540000
0.615,0.001147,30.533272,0.804263,11.379365,-706.580000,-208.250000,-111.650000
0.617,0.001145,26.746533,3.614396,13.758643,-717.290000,-264.600000,-98.420000
0.619,0.001229,22.193830,6.300060,15.587384,-717.290000,-325.080000,-93.170000
0.621,0.001307,16.118772,9.359132,17.468785,-710.220000,-370.650000,-91.560000
0.623,0.001299,12.403842,11.977775,19.225716,-695.380000,-396.200000,-88.060000
0.625,0.001321,7.381986,14.706524,20.738497,-666.610000,-418.460000,-78.820000
0.627,0.001183,3.432480,17.057079,21.494887,-637.980000,-428.680000,-66.220000
0.629,0.001150,-0.631921,19.230504,23.385863,-597.450000,-431.060000,-46.130000
0.631,0.001288,-4.145784,21.351269,23.079477,-524.440000,-424.900000,-30.310000
0.633,0.001319,-7.243155,23.414586,21.906593,-481.810000,-406.560000,-17.920000
0.635,0.001298,-11.001169,25.176306,22.414045,-427.140000,-385.910000,-14.630000
0.637,0.001167,-12.073520,26.468871,22.361385,-373.520000,-356.790000,-19.250000
0.639,0.001149,-14.002794,27.502924,21.959253,-316.120000,-312.270000,-23.030000
0.641,0.001147,-15.912919,28.536976,21.064032,-242.060000,-275.450000,-28.000000
0.643,0.001144,-17.306017,29.173684,20.451260,-184.310000,-236.320000,-29.610000
0.645,0.001145,-18.574646,29.403474,19.934234,-102.060000,-182.000000,-26.880000
0.647,0.001144,-19.354973,29.168897,19.144333,-41.930000,-139.790000,-19.460000
0.649,0.001146,-19.656572,28.575274,18.718265,14.770000,-84.280000,-12.740000
0.651,0.001144,-19.196993,27.617818,18.440603,89.600000,-41.440000,-6.860000
0.653,0.001145,-18.301771,26.152911,17.875704,142.870000,17.360000,-0.490000
0.655,0.001141,-17.219846,24.654492,17.253357,204.540000,52.850000,-0.140000
0.657,0.001145,-15.381531,22.816176,16.501754,246.330000,90.160000,-1.540000
0.659,0.001146,-13.289489,21.001797,15.740577,286.160000,136.570000,-5.320000
0.661,0.001144,-11.135213,19.220929,15.094294,332.640000,166.950000,-8.120000
0.663,0.001144,-8.746361,18.962416,-2.350554,363.370000,174.440000,-8.470000
0.665,0.001146,17.746447,-1.962785,35.363637,909.370000,90.230000,209.020000
0.667,0.001144,44.832877,-4.748982,3.513864,1011.290000,-24.010000,839.300000
0.669,0.001145,59.941533,-18.737414,-2.613855,810.670000,-451.990000,1288.280000
0.671,0.001142,64.905942,-31.409344,-5.486223,612.990000,-528.150000,1433.460000
0.673,0.001143,67.945865,-35.574278,-7.018152,473.900000,-621.390000,1084.370000
0.675,0.001242,70.416102,-37.853023,-7.549541,246.190000,-617.120000,369.670000
0.677,0.001171,66.380424,-39.040268,-4.993133,153.860000,-521.150000,-112.350000
0.679,0.001243,55.082444,-40.739753,0.521814,20.090000,-634.550000,-371.350000
0.681,0.001162,39.562082,-41.007840,3.015986,-65.940000,-679.210000,-307.230000
0.683,0.001149,26.128974,-40.840286,3.408543,-155.190000,-873.880000,-33.110000
0.685,0.001143,18.550710,-41.577527,4.878238,-370.090000,-973.630000,341.740000
0.687,0.001147,16.860800,-42.166362,8.095290,-559.230000,-1117.690000,722.050000
0.689,0.001149,20.733710,-41.381248,13.466619,-789.740000,-1176.910000,848.190000
0.691,0.001143,25.310349,-38.595051,17.133675,-962.990000,-1173.970000,693.420000
0.693,0.001144,27.210900,-34.382245,22.366172,-1167.530000,-1095.500000,401.870000
0.695,0.001145,24.482150,-28.273676,30.155077,-1294.930000,-982.590000,-95.760000
0.697,0.001145,15.893770,-21.882657,34.229052,-1394.330000,-881.230000,-440.230000
0.699,0.001145,3.734078,-12.571397,35.717896,-1495.480000,-821.940000,-652.470000
0.701,0.001145,-9.196365,-4.591002,38.365262,-1541.120000,-815.360000,-687.260000
0.703,0.001147,-19.278377,1.110649,48.255782,-1550.780000,-830.410000,-547.610000
0.705,0.001147,-26.301316,8.023481,56.786715,-1390.690000,-832.090000,-272.650000
0.707,0.001144,-28.225803,19.292738,39.638678,-1239.140000,-826.840000,-86.310000
0.709,0.001148,-25.726843,24.865132,41.362099,-1243.900000,-790.090000,16.590000
0.711,0.001150,-24.046507,29.681136,43.784463,-1164.170000,-702.240000,37.100000
0.713,0.001178,-23.352352,34.894484,39.600380,-1021.790000,-603.960000,-33.670000
0.715,0.001149,-24.089593,39.715275,38.298240,-935.200000,-503.510000,-147.000000
0.717,0.001147,-25.731630,45.220647,36.177475,-808.710000,-380.800000,-207.340000
0.719,0.001153,-28.225803,48.906852,32.352438,-609.980000,-306.950000,-166.600000
0.721,0.001148,-28.082184,50.003140,30.040182,-471.940000,-245.560000,-82.390000
0.723,0.001149,-25.257689,49.744626,29.264643,-292.460000,-217.560000,18.270000
0.725,0.001149,-21.772549,47.647798,27.368880,-162.260000,-179.690000,132.090000
0.727,0.001147,-17.516658,45.790333,25.722055,6.020000,-119.840000,149.170000
0.729,0.001153,-12.135755,41.433908,23.835867,125.860000,-61.320000,122.850000
0.731,0.001134,-8.947426,36.761523,22.169894,238.420000,18.970000,61.600000
0.733,0.001132,-6.931981,30.475824,21.528398,372.470000,71.120000,17.430000
0.735,0.001130,-7.142622,24.376830,18.828372,450.310000,109.410000,-16.380000
0.737,0.001132,-6.989429,19.149120,15.386318,530.670000,146.650000,5.740000
0.739,0.001146,-5.136751,13.126722,14.361840,565.810000,163.030000,68.530000
0.741,0.001143,-1.938848,7.583052,12.226713,592.620000,159.600000,136.150000
0.743,0.001143,1.656399,2.867581,10.316588,599.410000,153.440000,186.830000
0.745,0.001144,5.524521,-1.847890,8.487847,592.130000,158.550000,189.070000
0.747,0.001144,8.401676,-5.390477,6.458041,557.690000,169.400000,154.280000
0.749,0.001143,9.311260,-7.420284,4.356425,515.900000,188.650000,51.310000
0.751,0.001384,8.430400,-8.583593,3.518651,438.130000,230.230000,-64.470000
0.753,0.001253,6.553786,-8.200611,3.604822,381.990000,264.810000,-134.960000
0.755,0.001155,4.035677,-6.572935,3.719717,328.720000,277.760000,-183.750000
0.757,0.001191,1.575015,-4.696322,3.729291,264.110000,299.600000,-219.520000
0.759,0.001365,-0.153193,-0.928732,5.548458,219.660000,325.850000,-237.160000
0.761,0.001242,-0.292024,4.016528,0.756390,221.270000,346.430000,-252.210000
0.763,0.001259,-2.369704,6.146868,3.963868,202.370000,367.220000,-271.950000
0.765,0.001148,-4.959622,8.066567,6.376657,198.730000,393.610000,-276.360000
0.767,0.001146,-5.256433,12.815549,6.955918,165.900000,409.430000,-276.500000
0.769,0.001146,-7.951672,14.634715,17.617190,131.180000,448.560000,-281.960000
0.771,0.001144,-5.802183,24.740663,13.629386,151.200000,494.200000,-313.740000
0.773,0.001146,-11.163937,24.309808,28.201866,121.520000,547.190000,-396.200000
0.775,0.001144,-15.778875,27.814097,31.892859,364.350000,634.970000,-442.610000
0.777,0.001147,-17.104951,30.169439,25.200242,436.380000,688.030000,-423.990000
0.779,0.001146,-16.602287,31.083809,29.417836,475.510000,734.790000,-341.810000
0.781,0.001144,-16.113984,28.618360,33.056168,635.810000,739.480000,-225.470000
0.783,0.001144,-14.601204,26.909301,33.946602,706.790000,769.790000,-70.910000
0.785,0.001144,-11.384152,19.560826,35.215232,899.640000,763.210000,53.900000
0.787,0.001143,-6.587297,13.835239,29.465708,951.860000,773.570000,163.940000
0.789,0.001147,-0.167555,8.387315,31.557750,945.350000,783.720000,191.380000
0.791,0.001145,4.988346,2.183000,32.113074,1005.410000,790.790000,148.890000
0.793,0.001144,9.277749,-2.192574,26.377913,1032.710000,834.890000,38.640000
0.795,0.001146,11.872454,-7.109111,23.395437,993.790000,853.860000,-64.680000
0.797,0.001144,12.590546,-9.459665,21.882657,962.640000,893.200000,-174.090000
0.799,0.001145,13.050125,-12.269799,19.819339,929.110000,903.490000,-218.890000
0.801,0.001145,13.308638,-14.347478,16.875162,876.400000,896.770000,-228.340000
0.803,0.001145,14.337904,-16.429945,14.313967,818.650000,870.940000,-186.830000
0.805,0.001151,16.300688,-18.186877,12.647994,735.630000,829.010000,-145.390000
0.807,0.001144,18.995927,-20.781582,10.551165,672.070000,798.210000,-89.810000
0.809,0.001148,22.385321,-21.078394,8.645828,589.680000,744.030000,-71.050000
0.811,0.001145,25.200242,-21.983190,6.185166,521.920000,712.180000,-75.600000
0.813,0.001145,27.804522,-22.351810,3.992592,449.470000,662.550000,-101.780000
0.815,0.001145,29.690711,-22.514578,1.345226,342.790000,621.670000,-133.700000
0.817,0.001146,30.571570,-21.968828,0.823412,263.480000,567.490000,-173.110000
0.819,0.001146,30.964127,-21.083181,-0.234577,164.150000,515.270000,-187.180000
0.821,0.001144,30.973702,-20.049129,-1.105862,90.790000,462.700000,-180.320000
0.823,0.001147,30.839658,-18.498050,-1.752144,21.000000,378.280000,-155.260000
0.825,0.001145,30.863594,-17.047504,-2.034594,-66.570000,313.740000,-119.910000
0.827,0.001144,31.083809,-15.276210,-1.910125,-128.800000,223.090000,-76.580000
0.829,0.001147,31.399770,-13.375660,-1.493631,-205.520000,156.170000,-48.860000
0.831,0.001143,31.562537,-11.484685,-0.890434,-257.390000,92.820000,-32.690000
0.833,0.001224,31.366259,-9.210727,0.268088,-319.550000,14.560000,-30.870000
0.835,0.001147,30.308270,-7.018152,1.737783,-359.590000,-38.010000,-44.170000
0.837,0.001173,28.201866,-4.887813,3.063859,-393.750000,-103.670000,-55.580000
0.839,0.001149,25.434819,-2.522897,4.523980,-430.850000,-148.890000,-67.480000
0.841,0.001146,21.949679,-0.292024,5.854843,-450.520000,-202.370000,-74.620000
0.843,0.001144,18.004960,1.747357,7.492093,-470.610000,-238.630000,-72.380000
0.845,0.001144,14.069816,3.600035,9.091045,-481.040000,-268.940000,-59.990000
0.847,0.001162,9.928819,5.620267,10.421909,-486.710000,-302.400000,-44.940000
0.849,0.001147,6.525063,8.550082,11.781496,-489.510000,-320.180000,-23.450000
0.851,0.001145,3.183541,9.134130,13.026189,-487.060000,-332.710000,-9.030000
0.853,0.001148,0.330322,10.819253,13.868750,-478.940000,-335.300000,0.840000
0.855,0.001143,-1.665973,12.561823,14.921952,-469.000000,-332.290000,8.190000
0.857,0.001164,-3.686206,14.246945,15.793237,-448.840000,-320.110000,7.980000
0.859,0.001145,-5.471861,16.090048,16.645373,-418.950000,-305.970000,2.730000
0.861,0.001147,-7.094749,17.674638,15.903344,-387.240000,-278.110000,-5.110000
0.863,0.001145,6.735703,6.127718,38.025365,-141.960000,-270.760000,79.870000
0.865,0.001146,11.025106,13.308638,4.701109,-52.430000,-386.190000,347.340000
0.867,0.001163,22.677345,9.282536,8.813382,-203.630000,-437.570000,557.200000
0.869,0.001147,32.074776,5.141539,13.538428,-186.690000,-595.280000,677.040000
0.871,0.001144,37.393444,4.097912,9.196365,-186.620000,-621.880000,602.280000
0.873,0.001145,40.758902,2.532471,9.919244,-248.430000,-617.540000,338.380000
0.875,0.001145,40.064746,1.986721,15.936855,-254.450000,-615.020000,107.240000
0.877,0.001163,34.789164,1.421822,14.021943,-200.900000,-579.040000,-40.740000
0.879,0.001144,28.838575,0.440430,12.968742,-192.500000,-646.100000,-51.100000
0.881,0.001143,23.764058,-1.479270,14.950675,-209.020000,-736.050000,85.680000
0.883,0.001244,19.354973,-4.294190,14.122476,-233.520000,-860.650000,399.070000
0.885,0.001150,18.483688,-6.185166,14.036305,-264.880000,-956.830000,518.840000
0.887,0.001174,21.097543,-8.559657,15.539511,-356.300000,-1003.520000,602.910000
0.889,0.001149,23.615652,-9.617646,15.486851,-411.320000,-1008.210000,554.400000
0.891,0.001145,23.917251,-9.675093,16.310263,-513.590000,-977.620000,399.140000
0.893,0.001144,22.256065,-8.588380,17.794320,-560.630000,-943.530000,118.230000
0.895,0.001145,17.104951,-5.835694,18.703903,-623.490000,-875.560000,-80.010000
0.897,0.001159,10.278290,-4.121848,22.461918,-677.390000,-847.490000,-219.520000
0.899,0.001147,1.981934,-0.483515,23.572567,-682.640000,-827.120000,-269.990000
0.901,0.001144,-4.461745,2.302682,25.324711,-695.030000,-819.770000,-227.640000
0.903,0.001144,-8.712850,5.960164,25.324711,-692.860000,-817.880000,-111.230000
0.905,0.001145,-10.019777,9.215514,24.893856,-664.790000,-806.820000,-24.990000
0.907,0.001161,-10.780955,11.499047,24.678428,-655.270000,-788.550000,32.900000
0.909,0.001146,-10.986808,13.198531,24.558746,-641.830000,-734.720000,22.190000
0.911,0.001144,-12.422992,15.563447,23.160861,-598.780000,-676.970000,-20.790000
0.913,0.001193,-14.079390,17.090590,23.720972,-565.110000,-587.300000,-108.920000
0.915,0.001145,-16.760267,19.311888,21.877870,-506.170000,-515.200000,-159.880000
0.917,0.001171,-19.891148,20.647539,20.149662,-473.340000,-458.780000,-184.870000
0.919,0.001148,-21.724677,23.007668,18.971991,-429.800000,-399.910000,-140.280000
0.921,0.001147,-22.758729,24.036933,18.799649,-360.360000,-370.510000,-59.010000
0.923,0.001143,-21.882657,23.974698,18.445390,-313.670000,-339.710000,68.600000
0.925,0.001144,-19.201780,25.118858,15.166103,-252.840000,-287.210000,133.840000
0.927,0.001161,-15.644831,24.381617,16.267177,-194.670000,-256.340000,145.110000
0.929,0.001149,-11.293194,24.127891,14.237371,-134.960000,-174.300000,108.220000
0.931,0.001145,-8.521358,23.548630,15.008123,-87.640000,-121.310000,21.140000
0.933,0.001145,-6.185166,23.223095,13.739494,-32.900000,-47.460000,-41.230000
0.935,0.001145,-4.394723,21.705528,14.993761,18.550000,2.590000,-78.120000
0.937,0.001161,-4.231956,20.365089,15.151741,76.580000,31.990000,-85.400000
0.939,0.001146,-3.935144,19.426782,11.680963,144.620000,56.980000,-53.760000
0.941,0.001143,-2.312256,17.076228,11.862880,174.510000,54.950000,10.220000
0.943,0.001144,0.129257,14.400138,11.197448,220.430000,55.930000,64.890000
0.945,0.001145,2.647366,11.341066,9.239450,262.710000,54.530000,100.380000
0.947,0.001157,5.069730,8.411251,8.205398,283.290000,61.740000,105.000000
0.949,0.001147,6.936769,5.783034,7.204856,297.780000,75.880000,80.010000
0.951,0.001143,7.855926,3.676631,5.802183,297.150000,87.990000,25.690000
0.953,0.001142,7.827203,1.867039,5.198986,292.530000,104.720000,-12.740000
0.955,0.001145,6.898470,0.612772,4.322914,281.190000,109.620000,-40.460000
0.957,0.001162,5.873993,-0.378195,3.580885,267.470000,114.940000,-48.650000
0.959,0.001376,4.739407,-1.182458,3.135668,236.040000,115.500000,-39.690000
0.961,0.001242,4.222381,-1.364375,3.269712,222.460000,115.850000,-32.550000
0.963,0.001158,3.815462,-1.072351,3.422905,194.320000,122.640000,-36.050000
0.965,0.001147,3.456416,-0.478728,3.781951,175.770000,133.210000,-57.750000
0.967,0.001238,2.944177,0.789901,3.877697,159.040000,155.400000,-87.850000
0.969,0.001318,2.001083,2.278745,5.342604,138.250000,184.030000,-131.810000
0.971,0.001262,0.574474,3.987804,6.065484,131.670000,208.530000,-165.900000
0.973,0.001158,-0.900009,6.314422,6.036760,129.150000,234.080000,-194.740000
0.975,0.001146,-1.996296,11.546919,-0.957456,141.190000,257.880000,-224.630000
0.977,0.001180,-4.748982,9.268174,5.438350,168.210000,288.610000,-240.660000
0.979,0.001148,-8.856468,9.316047,7.410709,183.120000,313.460000,-235.270000
0.981,0.001145,-13.030976,11.719261,5.811758,178.220000,351.680000,-227.360000
0.983,0.001143,-15.333658,13.859176,10.172970,125.790000,396.410000,-227.360000
0.985,0.001145,-14.993761,16.329412,16.611862,131.950000,442.120000,-245.420000
0.987,0.001162,-15.515574,19.331037,17.358677,180.110000,516.530000,-273.000000
0.989,0.001146,-17.487934,21.973615,24.515661,168.770000,581.490000,-316.890000
0.991,0.001142,-16.683671,24.874707,20.748072,273.070000,658.000000,-338.310000
0.993,0.001146,-19.398059,25.257689,27.258772,382.410000,722.750000,-328.650000
0.995,0.001143,-19.206567,26.195996,26.420998,437.710000,780.920000,-248.010000
0.997,0.001167,-16.104410,22.270427,29.369963,532.210000,796.390000,-154.700000
0.999,0.001147,-14.208647,20.872541,30.739125,576.450000,809.480000,-27.230000
1.001,0.001145,-11.163937,15.606533,32.955636,667.310000,828.800000,50.820000
1.003,0.001145,-6.079846,11.230959,27.823671,769.440000,846.160000,109.550000
1.005,0.001141,-1.005329,6.414955,27.852395,756.000000,864.920000,122.850000
1.007,0.001162,4.078763,2.001083,28.852937,778.120000,889.490000,88.830000
1.009,0.001147,7.741032,-1.239906,25.219391,801.500000,912.940000,1.540000
1.011,0.001144,10.283077,-4.222381,21.537973,772.660000,943.600000,-65.800000
1.013,0.001143,12.260224,-7.267091,21.566696,731.080000,956.270000,-136.920000
1.015,0.001144,13.356511,-9.272961,19.919872,697.340000,958.860000,-160.790000
1.017,0.001157,14.663439,-10.977233,17.128888,649.670000,947.660000,-162.120000
1.019,0.001148,16.559202,-12.111818,14.045880,596.750000,908.180000,-134.820000
1.021,0.001219,19.139545,-13.208106,12.614483,520.520000,883.470000,-105.630000
1.023,0.001145,22.054999,-14.318754,9.909670,467.320000,843.850000,-74.760000
1.025,0.001147,25.276838,-14.787908,9.354345,415.030000,792.190000,-66.150000
1.027,0.001375,29.379537,-15.314509,7.568690,339.780000,749.910000,-74.060000
1.029,0.001199,30.944978,-15.304934,6.008036,280.280000,691.110000,-91.630000
1.031,0.001150,33.089679,-14.797482,4.667598,198.940000,643.930000,-112.070000
1.033,0.001152,34.262563,-14.136838,3.667056,140.700000,592.130000,-129.850000
1.035,0.001145,35.387574,-12.949592,2.743111,66.080000,513.940000,-132.510000
1.037,0.001172,35.890238,-11.652240,2.058530,11.550000,448.280000,-115.780000
1.039,0.001146,36.301944,-10.220843,1.522355,-37.030000,353.010000,-95.270000
1.041,0.001144,36.474286,-8.712850,1.503206,-94.920000,279.440000,-70.210000
1.043,0.001210,36.670565,-6.999003,1.273416,-136.220000,204.820000,-39.200000
1.045,0.001149,36.775885,-5.380903,1.752144,-182.140000,109.480000,-22.890000
1.047,0.001155,36.143964,-3.695780,2.312256,-210.980000,39.900000,-13.930000
1.049,0.001248,34.951931,-2.034594,3.097370,-236.530000,-44.450000,-16.240000
1.051,0.001594,32.596590,-0.450004,4.117061,-264.180000,-119.630000,-27.580000
1.053,0.001589,29.379537,0.914370,5.270795,-281.820000,-169.960000,-41.930000
1.055,0.001590,25.138007,2.254809,6.252188,-293.860000,-228.480000,-51.660000
1.057,0.001636,20.360302,3.288861,7.358049,-307.440000,-265.510000,-52.780000
1.059,0.001588,15.707066,4.600576,8.291569,-314.860000,-297.920000,-45.780000
1.061,0.001589,10.833615,5.783034,9.349558,-319.900000,-331.100000,-31.220000
1.063,0.001588,6.553786,6.855385,9.981479,-325.290000,-349.510000,-6.230000
1.065,0.001589,2.910666,8.004332,11.235746,-328.090000,-361.760000,11.970000
1.067,0.001620,-0.311173,9.095832,11.757560,-327.950000,-362.880000,29.400000
1.069,0.001621,-2.987263,10.268716,12.624057,-326.340000,-353.570000,33.110000
1.071,0.001593,-4.916537,11.341066,13.796941,-316.330000,-339.500000,31.080000
1.073,0.001593,-6.505914,12.691079,14.653864,-296.730000,-319.340000,20.090000
1.075,0.001593,-8.387315,13.892687,14.189498,-280.000000,-288.190000,11.760000
1.077,0.001630,-9.890520,15.237912,14.572480,-263.480000,-261.590000,-1.050000
1.079,0.001591,-11.369790,16.176219,15.151741,-241.570000,-222.950000,-5.950000
1.081,0.001593,-12.667143,17.176761,14.826206,-203.770000,-191.870000,-8.190000
1.083,0.001591,-14.653864,18.081557,14.237371,-176.120000,-160.860000,-4.480000
1.085,0.001592,-13.959708,18.713478,6.175591,-147.420000,-124.110000,3.920000
1.087,0.001620,7.176133,0.086171,35.588640,309.610000,-211.470000,293.580000
1.089,0.001599,19.608699,6.319210,3.025561,366.380000,-366.450000,634.340000
1.091,0.001592,34.707780,-3.025561,-1.579802,221.060000,-446.740000,1082.970000
1.094,0.001691,50.386122,-10.196906,-0.153193,19.110000,-641.060000,1121.890000
1.095,0.001594,59.055886,-12.743739,4.275041,-99.890000,-714.840000,856.240000
1.097,0.001601,64.551684,-14.433649,6.510701,-121.450000,-618.520000,324.100000
1.099,0.001591,63.072414,-16.946971,9.459665,-124.110000,-628.950000,24.780000
1.101,0.001593,55.513299,-19.867212,10.713933,-109.060000,-686.980000,-81.550000
1.103,0.001593,47.968546,-21.892231,8.214972,-161.280000,-849.100000,136.920000
1.105,0.001587,44.397235,-25.798652,12.624057,-283.570000,-1069.810000,469.770000
1.107,0.001594,43.597759,-32.610951,17.689000,-408.170000,-1215.970000,898.380000
1.109,0.001588,46.786087,-37.283337,16.353348,-528.780000,-1373.750000,1033.690000
1.111,0.001593,54.081902,-41.950935,20.958712,-755.440000,-1380.330000,964.320000
1.113,0.001627,57.902152,-43.013711,25.233753,-943.530000,-1328.600000,569.590000
1.115,0.001591,57.921301,-44.531279,31.639134,-1131.480000,-1286.180000,131.040000
1.117,0.001592,50.204205,-40.821137,37.560999,-1340.780000,-1244.880000,-412.300000
1.119,0.001593,35.813642,-37.350359,48.581317,-1447.460000,-1223.040000,-669.130000
1.121,0.001590,22.117234,-28.785915,51.022830,-1575.910000,-1235.500000,-690.550000
1.123,0.001594,6.989429,-21.068819,60.128237,-1699.880000,-1336.650000,-533.470000
1.125,0.001588,-5.792609,-11.795858,64.092105,-1746.850000,-1387.470000,-315.840000
1.127,0.001594,-15.951217,-2.527684,61.478250,-1766.590000,-1411.340000,-70.910000
1.129,0.001591,-17.827831,6.008036,76.524671,-1802.500000,-1379.630000,23.240000
1.131,0.001587,-21.451802,17.325166,70.109716,-1628.200000,-1287.930000,-19.110000
1.133,0.001587,-61.660166,46.723853,75.691684,-1626.870000,-1159.130000,127.540000
1.135,0.001591,-156.735547,113.913328,109.111686,-1588.230000,-1184.610000,2180.780000
1.137,0.001590,-52.717527,72.690060,74.614546,-555.870000,-923.440000,2293.480000
1.139,0.001591,69.760244,84.524216,8.698488,-391.160000,-238.910000,1618.120000
1.141,0.001592,106.330276,71.182066,59.055886,-267.330000,131.670000,-258.650000
1.143,0.001590,93.036000,65.939995,19.091673,32.270000,505.470000,-1276.380000
1.145,0.001589,86.798174,30.461463,18.086344,-18.620000,625.870000,-2119.180000
1.147,0.001587,34.195541,22.294363,43.975954,343.000000,562.450000,-2008.440000
1.149,0.001591,-17.621978,29.786456,6.376657,593.250000,206.290000,-1160.670000
1.151,0.001591,-22.222554,-25.554501,-28.407720,419.930000,51.730000,-331.450000
1.153,0.001589,-45.077028,-65.595311,-20.298067,136.430000,64.540000,-204.400000
1.155,0.001591,-18.780499,-30.490186,-11.666601,-72.800000,-4.340000,295.820000
1.157,0.001594,12.643206,-17.004419,-5.242072,-147.700000,-162.120000,577.150000
1.159,0.001592,22.026275,-5.194199,-1.091500,-224.350000,-203.280000,615.580000
1.161,0.001591,14.491097,9.325621,9.153279,-262.290000,-188.300000,505.890000
1.163,0.001589,10.795316,16.511329,14.941101,-211.820000,-127.470000,358.260000
1.165,0.001591,11.140001,21.245949,16.219305,-100.170000,-57.400000,123.830000
1.167,0.002480,11.752772,19.699657,15.534724,9.170000,28.420000,-113.960000
1.170,0.001706,9.952755,11.929902,10.493718,122.080000,96.040000,-280.910000
1.172,0.002024,6.960705,1.507993,4.576640,155.190000,125.020000,-305.760000
1.174,0.001593,7.415497,-4.504830,1.273416,145.810000,116.200000,-256.550000
1.176,0.001592,7.042089,-8.770297,-1.890976,71.960000,76.230000,-168.070000
1.178,0.001592,7.008578,-8.583593,-1.388311,32.130000,41.020000,-44.590000
1.180,0.001590,7.204856,-5.170262,0.536175,-19.180000,3.290000,34.720000
1.182,0.001589,7.654861,-0.636708,3.513864,-56.140000,-10.640000,70.630000
1.184,0.001586,7.204856,3.853760,4.911749,-61.670000,-7.420000,56.560000
1.186,0.001590,7.032514,7.736244,6.400593,-49.140000,14.700000,17.500000
1.188,0.001592,7.554328,9.464453,7.051663,-16.170000,40.670000,-70.350000
1.190,0.001589,8.353804,10.259141,7.032514,9.660000,76.230000,-138.950000
1.192,0.001590,8.794233,9.459665,6.381444,45.010000,101.570000,-228.480000
1.194,0.001586,8.100078,8.095290,5.342604,67.480000,126.980000,-273.070000
1.196,0.001587,5.706438,7.683584,4.576640,79.870000,137.760000,-292.530000
1.198,0.001587,-1.215969,9.469240,6.189953,89.040000,135.380000,-227.430000
1.200,0.001587,-2.743111,10.101161,7.027727,102.410000,125.300000,-153.020000
1.202,0.001590,-2.834070,10.503292,5.093666,125.090000,123.270000,-78.610000
1.204,0.001588,-3.628758,10.125097,7.439433,142.240000,146.440000,-70.000000
1.206,0.001591,-7.137834,14.735248,4.739407,220.080000,160.720000,-19.670000
1.208,0.001591,-13.035763,16.927822,4.816004,284.760000,175.280000,32.060000
1.210,0.001587,-16.382072,16.501754,7.109111,336.140000,196.980000,92.050000
1.212,0.001588,-17.760809,14.323542,7.721883,349.230000,231.000000,120.610000
1.214,0.001587,-17.148037,12.236288,8.516571,351.400000,315.000000,63.980000
1.216,0.001587,-14.634715,13.375660,9.809137,354.620000,378.910000,-45.780000
1.218,0.001612,-11.001169,17.483147,8.430400,341.670000,469.280000,-164.290000
1.220,0.001785,-3.767589,22.576812,15.022485,240.660000,554.540000,-298.550000
1.222,0.001742,-14.395351,23.424161,26.622064,290.920000,631.960000,-412.650000
1.224,0.001753,-20.728922,30.006671,15.668767,446.250000,724.010000,-428.960000
1.226,0.001601,-20.384238,38.202494,28.862511,317.730000,760.550000,-356.650000
1.228,0.001594,-21.054457,35.220019,40.194003,545.580000,800.380000,-218.470000
1.230,0.001592,-20.767221,35.224806,37.249826,634.970000,811.720000,-21.000000
1.232,0.001592,-17.909214,33.841282,47.422796,779.870000,849.170000,69.650000
1.234,0.001589,-14.558118,29.542305,43.468502,957.390000,880.600000,144.620000
1.236,0.001730,-11.163937,22.136383,44.090849,1046.640000,919.240000,144.690000
1.238,0.001712,-7.812841,15.419829,49.998352,1172.570000,987.140000,129.220000
1.240,0.001595,-4.509618,7.444220,48.097802,1286.460000,1020.110000,108.920000
1.242,0.001919,-2.001083,0.952669,45.436074,1291.850000,1073.800000,101.360000
1.244,0.001697,1.335651,-6.922407,49.151004,1289.540000,1090.180000,72.170000
1.247,0.001682,5.074517,-11.905965,45.282882,1311.520000,1130.710000,61.670000
1.249,0.001721,8.554869,-16.698033,39.293994,1269.310000,1159.620000,15.960000
1.251,0.001597,11.403301,-20.125725,38.494518,1215.270000,1167.880000,-2.730000
1.253,0.001656,15.247487,-24.185339,32.697122,1112.860000,1177.050000,-45.570000
1.255,0.001603,18.258686,-26.286954,27.857182,1033.900000,1177.680000,-80.990000
1.257,0.001599,20.748072,-27.981652,25.075773,918.190000,1165.920000,-116.410000
1.259,0.001597,23.486396,-28.991768,21.729464,829.010000,1144.710000,-145.320000
1.261,0.001594,26.167272,-30.088055,18.876245,704.900000,1124.480000,-175.840000
1.263,0.001595,28.374209,-30.571570,16.334199,602.700000,1094.380000,-185.990000
1.265,0.001597,30.657741,-30.461463,13.581513,505.190000,1045.310000,-209.020000
1.267,0.001600,32.706697,-29.839116,10.737869,374.570000,994.210000,-211.470000
1.269,0.001594,34.353521,-29.121024,8.420826,275.030000,927.220000,-229.180000
1.271,0.001597,36.086517,-27.804522,5.883567,146.930000,867.720000,-228.340000
1.273,0.001595,37.149293,-26.057165,3.868122,52.570000,806.750000,-232.120000
1.275,0.001594,38.125898,-23.898102,2.254809,-32.830000,716.660000,-225.260000
1.277,0.001588,38.810479,-21.796486,1.278204,-147.420000,644.560000,-219.450000
1.279,0.001574,39.021119,-19.364548,1.163309,-224.910000,547.050000,-207.830000
1.281,0.001572,39.006757,-16.659734,1.503206,-320.110000,470.400000,-190.960000
1.283,0.001571,38.513668,-14.050667,2.972901,-381.850000,360.150000,-184.030000
1.285,0.001570,37.963130,-11.068191,4.006953,-452.200000,294.980000,-165.200000
1.287,0.001623,36.747161,-8.133589,5.141539,-501.900000,219.170000,-154.420000
1.289,0.001594,35.377999,-5.079304,7.075600,-542.290000,122.920000,-134.400000
1.291,0.001590,33.779048,-1.862252,8.712850,-581.490000,52.360000,-122.710000
1.293,0.001590,31.787539,2.288320,10.101161,-600.180000,-34.650000,-103.810000
1.295,0.001593,29.494432,4.140997,11.647452,-614.180000,-92.820000,-95.130000
1.297,0.001617,26.952386,7.037302,13.121934,-614.250000,-146.510000,-80.220000
1.299,0.001590,23.802356,9.407005,15.884195,-607.600000,-208.880000,-77.210000
1.301,0.001585,20.192747,11.896391,16.056537,-586.530000,-248.010000,-70.840000
1.304,0.001708,15.190039,14.462373,17.449636,-558.390000,-297.640000,-73.640000
1.306,0.001590,12.040009,16.147495,18.071982,-530.950000,-318.780000,-65.870000
1.308,0.001630,7.927736,17.966662,18.914543,-488.530000,-333.690000,-62.930000
1.310,0.001592,4.643662,19.340611,19.690083,-450.590000,-344.820000,-49.770000
1.312,0.001605,1.704272,20.503920,21.198076,-390.250000,-348.040000,-38.780000
1.314,0.001611,-1.086713,21.863508,20.403387,-336.210000,-343.420000,-25.130000
1.316,0.001591,-3.193116,22.730005,17.444848,-278.810000,-334.880000,-16.940000
1.318,0.001631,14.993761,13.318213,34.233839,62.020000,-389.410000,166.250000
1.320,0.001594,24.099168,10.383610,15.726215,223.860000,-524.860000,426.510000
1.322,0.001592,40.581773,3.126094,4.437809,203.420000,-631.120000,853.720000
1.324,0.001591,51.573367,-6.965492,8.909128,45.150000,-875.910000,1027.740000
1.326,0.001590,61.095267,-12.791612,12.863421,-46.760000,-940.380000,1006.390000
1.328,0.001617,66.777769,-17.583679,11.475110,-78.190000,-1019.060000,717.430000
1.330,0.001592,67.936290,-22.868837,15.726215,-151.830000,-1027.810000,440.580000
1.332,0.001590,62.000063,-25.655034,15.213976,-231.770000,-1065.820000,168.070000
1.334,0.001588,57.543106,-28.771553,18.833160,-316.890000,-1157.240000,115.850000
1.336,0.001591,52.085606,-31.892859,23.290117,-469.280000,-1256.640000,216.230000
1.338,0.001619,47.868013,-36.919503,32.993934,-564.130000,-1396.430000,322.840000
1.340,0.001592,44.785004,-39.490273,28.130057,-702.310000,-1453.900000,341.460000
1.342,0.001591,43.506801,-40.189216,31.112533,-898.450000,-1491.560000,218.190000
1.344,0.001589,42.549345,-41.256779,43.430204,-1075.830000,-1481.900000,38.080000
1.346,0.001592,35.904600,-38.843990,49.280260,-1222.480000,-1458.870000,-269.290000
1.348,0.001622,24.553959,-33.769473,52.080819,-1327.060000,-1419.460000,-462.350000
1.350,0.001591,21.571484,-25.841737,58.294709,-1475.250000,-1412.320000,-560.840000
1.352,0.001590,13.629386,-20.345940,65.375096,-1535.590000,-1423.800000,-544.670000
1.354,0.001590,1.996296,-13.878325,70.645891,-1564.430000,-1454.320000,-492.590000
1.356,0.001587,-8.411251,-6.596872,70.803871,-1560.860000,-1452.290000,-390.040000
1.358,0.001627,-15.659193,1.771294,73.379428,-1559.600000,-1414.490000,-330.470000
1.360,0.001591,-24.324170,10.019777,69.233643,-1483.650000,-1374.660000,-308.910000
1.362,0.001594,-32.567866,19.718806,67.357030,-1462.650000,-1265.740000,-322.700000
1.364,0.001591,-42.362641,29.422623,65.571374,-1430.030000,-1179.570000,-373.590000
1.366,0.001592,-129.170389,63.541567,80.905032,-1312.570000,-1036.630000,-54.600000
1.368,0.001623,-156.735547,131.233707,53.483492,-1047.130000,-985.530000,1597.330000
1.370,0.001590,-156.735547,65.135732,63.589440,-672.350000,-667.030000,1831.130000
1.372,0.001589,-6.381444,81.364611,30.265184,-274.050000,146.930000,751.660000
1.374,0.001586,53.890411,63.292629,43.133393,34.510000,554.750000,-467.460000
1.376,0.001589,66.002229,50.299951,31.950307,285.810000,855.120000,-1562.190000
1.378,0.002703,55.728726,42.472748,35.717896,416.780000,801.640000,-1316.490000
1.381,0.001703,23.156073,33.874793,16.056537,802.900000,305.060000,-421.260000
1.383,0.001707,20.207109,16.449094,0.694156,853.930000,-203.070000,824.670000
1.385,0.001592,23.213521,-21.581058,-8.698488,769.510000,-389.480000,1244.040000
1.387,0.001608,25.176306,-76.735311,-33.352980,555.030000,-327.390000,481.110000
1.389,0.001594,4.356425,-70.521422,-24.822047,244.510000,163.940000,-709.030000
1.391,0.001591,-34.511502,-12.877783,-2.666515,55.720000,155.820000,-195.860000
1.393,0.001597,-5.873993,-22.629473,-7.592626,-27.440000,-31.570000,221.270000
1.395,0.001595,12.753314,-14.845355,-8.023481,-146.230000,-62.720000,359.380000
1.397,0.001594,16.980482,-2.422364,1.953210,-214.900000,-103.670000,382.130000
1.399,0.001592,16.425158,8.042630,7.568690,-206.780000,-103.600000,304.850000
1.401,0.001590,15.371956,13.112360,12.150117,-143.920000,-63.560000,85.190000
1.403,0.001588,12.643206,16.027813,12.197989,-81.900000,14.630000,-104.440000
1.405,0.001590,8.813382,16.525691,11.724049,16.380000,79.660000,-255.640000
1.407,0.001589,4.945260,14.318754,9.186790,71.120000,97.300000,-278.460000
1.409,0.001591,5.021857,8.339442,5.036219,99.330000,106.400000,-243.740000
1.411,0.001593,8.018694,-0.124469,2.795772,101.010000,89.530000,-216.230000
1.413,0.001592,7.946885,-2.451087,0.957456,76.370000,85.190000,-194.040000
1.415,0.001590,6.783576,-2.719175,0.631921,36.470000,73.850000,-148.330000
1.417,0.001588,6.031973,-1.287778,1.900550,10.290000,58.660000,-116.900000
1.419,0.001587,5.730374,1.388311,2.527684,-14.840000,65.800000,-100.870000
1.421,0.001589,5.481436,4.456958,5.069730,-19.740000,66.570000,-116.060000
1.423,0.001934,3.743653,8.191036,6.716554,-1.680000,88.480000,-142.520000
1.425,0.001702,2.297894,11.623516,7.425071,18.270000,118.580000,-155.400000
1.427,0.001782,-0.612772,15.649618,9.091045,66.990000,123.130000,-143.920000
1.429,0.001966,-1.651612,17.004419,9.780413,115.430000,146.300000,-124.390000
1.431,0.001600,-2.235660,17.502296,10.780955,146.440000,160.230000,-107.450000
1.433,0.001598,-4.911749,20.034767,3.461203,255.500000,195.230000,-94.220000
1.435,0.001598,-10.359674,14.696950,8.167100,303.730000,205.800000,-76.790000
1.437,0.001606,-14.706524,12.403842,5.773460,334.320000,238.840000,-70.070000
1.439,0.001591,-16.635798,11.259683,6.955918,332.640000,296.800000,-73.920000
1.441,0.001600,-17.444848,12.743739,6.553786,327.040000,355.460000,-92.960000
1.443,0.001599,-14.797482,16.559202,6.984642,303.730000,414.330000,-148.470000
1.445,0.001591,-11.068191,20.029980,18.215600,238.350000,492.730000,-208.950000
1.447,0.001598,-15.472489,26.799193,19.364548,308.070000,534.660000,-296.170000
1.449,0.001594,-18.244324,28.589636,25.238540,334.880000,636.300000,-321.720000
1.451,0.001598,-19.694870,35.406723,32.175309,397.250000,693.420000,-283.010000
1.453,0.001595,-23.017242,34.396607,37.589723,543.900000,727.090000,-158.550000
1.455,0.001597,-19.254440,34.640758,37.096633,685.650000,744.450000,-31.920000
1.457,0.001592,-14.026730,35.684385,41.232843,750.190000,741.650000,101.080000
1.459,0.001575,-9.928819,27.105579,45.991399,923.650000,785.260000,143.220000
1.462,0.001643,-3.753228,17.947513,44.406809,1130.640000,839.160000,176.190000
1.464,0.001575,-0.828199,10.613400,42.898816,1206.730000,881.930000,175.350000
1.466,0.001568,2.403215,3.331947,44.483406,1248.450000,885.010000,156.310000
1.468,0.001597,6.381444,-3.379820,45.211072,1291.430000,915.810000,128.100000
1.470,0.001590,9.028810,-9.153279,42.444024,1323.070000,938.210000,91.840000
1.472,0.001587,9.474027,-14.663439,37.158867,1299.340000,952.980000,65.590000
1.474,0.001593,12.063946,-17.904427,34.243414,1241.660000,979.930000,43.680000
1.476,0.001590,14.400138,-21.274672,30.657741,1201.410000,973.280000,12.810000
1.478,0.001593,17.109739,-23.993847,26.516744,1138.760000,977.830000,-8.050000
1.480,0.001592,19.814552,-26.239082,22.485854,1045.030000,960.890000,-36.610000
1.482,0.001593,23.223095,-28.039099,18.488475,962.360000,944.020000,-58.240000
1.484,0.001589,24.539597,-29.456134,15.453340,851.130000,931.560000,-87.290000
1.486,0.001591,26.789619,-30.667316,12.518737,764.190000,895.440000,-109.830000
1.488,0.001591,28.627934,-31.217853,9.464453,628.530000,872.060000,-128.940000
1.490,0.001587,30.739125,-31.667857,6.218677,531.440000,831.320000,-156.100000
1.492,0.001590,32.424247,-31.591261,5.835694,433.230000,779.380000,-169.820000
1.494,0.001589,33.927453,-30.724763,3.714929,310.310000,728.280000,-179.970000
1.496,0.001591,35.138635,-29.748158,1.551079,222.950000,654.710000,-177.520000
1.498,0.001597,36.206199,-28.201866,-0.454792,99.750000,594.650000,-167.720000
1.500,0.001592,36.957802,-26.301316,-1.804805,11.690000,528.430000,-147.980000
1.502,0.001592,37.781214,-23.304479,-2.599493,-70.840000,436.660000,-131.600000
1.504,0.001589,38.245580,-22.548089,-2.556408,-174.930000,366.170000,-111.790000
1.506,0.001592,38.350900,-20.144874,-2.230872,-245.560000,272.930000,-101.990000
1.508,0.001590,38.255154,-17.976236,-1.369162,-333.340000,203.280000,-95.690000
1.510,0.001585,37.685468,-15.295360,0.081384,-394.520000,118.370000,-90.510000
1.513,0.001777,36.335455,-11.834156,2.475024,-479.780000,27.370000,-89.110000
1.514,0.001600,34.789164,-9.517113,4.241530,-522.620000,-33.530000,-87.080000
1.517,0.001654,32.673186,-6.381444,6.592085,-559.300000,-111.370000,-82.110000
1.518,0.001606,29.810393,-2.460662,8.420826,-594.650000,-165.200000,-76.790000
1.520,0.001592,26.693873,-0.866498,9.957542,-612.360000,-214.480000,-67.550000
1.522,0.001590,23.175222,1.780868,11.714474,-625.240000,-270.130000,-59.990000
1.524,0.001589,19.196993,4.140997,13.370873,-632.380000,-304.500000,-50.260000
1.526,0.001588,26.468871,0.268088,32.596590,-551.950000,-373.520000,38.360000
1.528,0.001593,25.305562,4.409085,7.310177,-337.260000,-410.340000,268.030000
1.530,0.001591,29.408261,-0.574474,8.143163,-399.700000,-557.340000,474.600000
1.532,0.001590,37.422168,-5.428776,14.596417,-464.660000,-669.620000,626.360000
1.534,0.001591,44.550428,-9.000086,13.887899,-458.640000,-774.970000,706.160000
1.536,0.001591,48.949938,-9.924031,10.857551,-536.900000,-840.140000,620.060000
1.538,0.001593,49.754201,-12.154904,18.081557,-630.840000,-834.470000,392.980000
1.540,0.001591,45.886079,-13.011827,19.503379,-653.660000,-855.750000,180.110000
1.542,0.001588,42.803070,-11.034680,18.713478,-735.490000,-843.360000,27.930000
1.544,0.001595,38.767393,-11.068191,27.842820,-787.920000,-908.390000,-28.560000
1.546,0.001593,30.150289,-10.608612,28.441230,-787.290000,-966.280000,-14.490000
1.548,0.001594,25.219391,-9.746902,29.025279,-819.490000,-1012.200000,44.660000
1.550,0.001627,21.217225,-9.134130,28.747616,-851.130000,-1050.070000,52.150000
1.552,0.001595,20.360302,-8.181462,35.105124,-958.300000,-1045.590000,22.540000
1.554,0.001594,15.448553,-6.084633,34.477991,-973.000000,-1022.840000,-62.020000
1.556,0.001592,13.102785,-1.627675,33.410427,-1036.840000,-998.760000,-149.310000
1.558,0.001591,11.652240,1.594164,38.437071,-1070.790000,-982.030000,-267.120000
1.560,0.001593,6.491552,5.208561,39.720062,-1057.770000,-939.960000,-329.420000
1.562,0.001591,0.876072,8.583593,44.933410,-985.880000,-908.180000,-381.570000
1.564,0.001589,-4.911749,13.854388,40.160492,-936.880000,-873.460000,-357.140000
1.566,0.001589,-10.153821,18.598583,38.499306,-880.740000,-863.800000,-316.470000
1.568,0.001595,-14.275669,21.073607,39.064205,-806.120000,-834.680000,-242.410000
1.570,0.001594,-17.621978,23.515119,37.106207,-737.800000,-794.150000,-192.290000
1.572,0.001592,-21.049670,27.948141,31.773177,-635.250000,-741.510000,-155.050000
1.574,0.001590,-22.174681,29.614114,31.888072,-572.040000,-665.280000,-132.510000
1.576,0.001590,-23.821505,31.093384,28.632722,-455.070000,-603.330000,-127.190000
1.578,0.001593,-24.668854,31.744454,26.176847,-375.690000,-511.980000,-125.370000
1.580,0.001584,-25.085347,32.122649,23.816718,-292.460000,-433.020000,-127.120000
1.582,0.001586,-24.415128,31.414131,22.720431,-179.900000,-359.870000,-117.390000
1.584,0.001586,-25.631097,30.317844,19.019863,-89.740000,-277.200000,-92.680000
1.586,0.002463,-25.018325,28.163568,17.631552,2.520000,-207.760000,-26.390000
1.589,0.001700,-22.725218,24.233211,15.410254,107.520000,-143.360000,28.140000
1.591,0.001772,-18.818798,20.508708,12.446928,193.900000,-75.880000,86.520000
1.593,0.001609,-14.634715,16.654947,11.451174,247.380000,-56.210000,114.310000
1.595,0.001607,-9.172428,11.479897,9.880946,305.270000,-3.780000,127.260000
1.597,0.001599,-4.547916,6.692617,8.056992,337.120000,25.130000,109.690000
1.599,0.001598,-0.292024,2.513322,5.720800,345.870000,66.360000,87.640000
1.601,0.001603,2.685664,-1.871826,3.724504,339.290000,85.890000,53.830000
1.603,0.001599,5.409626,-4.926111,1.531930,319.690000,100.520000,41.580000
1.605,0.001598,7.669223,-7.180920,0.157980,269.500000,100.940000,41.160000
1.607,0.001810,9.670306,-8.846893,-1.153734,228.620000,90.930000,49.560000
1.609,0.001698,11.403301,-9.397431,-2.216511,177.100000,81.270000,56.140000
1.611,0.001732,12.724590,-9.426154,-2.053743,107.730000,70.210000,43.540000
1.613,0.001637,13.054913,-8.731999,-1.637250,66.080000,64.610000,15.820000
1.615,0.001606,12.513950,-6.975067,-1.096287,13.860000,66.430000,-43.400000
1.617,0.001617,10.728294,-4.667598,-0.071809,-18.900000,74.970000,-89.250000
1.619,0.001602,8.502209,-1.761719,1.096287,-43.190000,83.790000,-127.680000
1.621,0.001600,5.519734,1.302140,2.230872,-62.370000,91.140000,-153.300000
1.623,0.001595,2.565982,4.681960,3.619184,-65.310000,100.870000,-154.280000
1.625,0.001602,0.277662,7.851139,5.179837,-57.470000,108.640000,-134.610000
1.627,0.001603,-1.388311,10.661273,6.295273,-44.800000,121.170000,-114.660000
1.629,0.001599,-2.010658,13.150658,7.922948,-10.920000,131.530000,-97.300000
1.631,0.001600,-1.800017,15.199614,9.167641,24.010000,146.020000,-79.240000
1.633,0.001603,-1.613313,16.640585,9.919244,69.860000,168.560000,-73.850000
1.635,0.001596,-1.254267,17.363465,10.895849,133.280000,188.790000,-72.800000
1.637,0.001605,-0.885647,18.110280,8.171887,184.030000,210.420000,-74.550000
1.639,0.001599,-2.254809,19.421995,3.963868,272.790000,223.230000,-75.880000
1.641,0.001598,-5.830907,14.088965,10.359674,312.060000,260.050000,-71.750000
1.643,0.001600,-9.201152,12.968742,6.060696,358.330000,280.350000,-73.920000
1.645,0.001601,-11.652240,12.346395,6.668681,342.370000,311.220000,-93.240000
1.647,0.001602,-12.877783,13.007040,10.412334,324.450000,371.140000,-107.380000
1.649,0.001602,-12.470864,14.443224,10.900637,339.290000,410.130000,-127.820000
1.651,0.001603,-10.824040,17.894853,12.652781,336.070000,466.620000,-141.050000
1.653,0.001731,-7.836777,19.953383,18.718265,314.720000,520.100000,-178.010000
1.655,0.001781,-15.223550,19.651784,27.517285,413.280000,581.700000,-190.260000
1.657,0.001832,-15.319296,19.067736,22.658196,548.100000,624.330000,-149.030000
1.659,0.001776,-15.204401,21.537973,23.759271,528.990000,650.160000,-66.010000
1.661,0.001778,-11.360215,19.206567,29.992309,591.220000,678.930000,3.850000
1.663,0.001777,-9.162854,18.086344,30.988063,697.060000,714.770000,64.540000
1.665,0.001972,-4.045252,15.592171,28.656658,735.000000,740.530000,74.550000
1.667,0.001805,-0.885647,12.700654,31.409344,767.060000,768.040000,58.730000
1.669,0.001761,1.790443,8.023481,32.089138,857.640000,806.050000,36.120000
1.671,0.001748,2.010658,3.351096,30.921042,921.340000,829.290000,23.800000
1.673,0.001788,4.887813,-1.192033,29.111450,925.890000,852.250000,32.130000
1.676,0.001752,5.783034,-5.242072,28.872086,911.470000,855.680000,52.500000
1.678,0.001790,9.536262,-9.105407,27.512498,905.870000,857.850000,63.560000
1.680,0.001749,10.982020,-12.269799,24.295446,880.670000,858.690000,63.630000
1.682,0.001751,13.739494,-14.878866,21.954466,842.030000,855.050000,48.790000
1.684,0.001748,16.262390,-17.306017,19.354973,777.000000,850.710000,10.920000
1.686,0.001749,18.569859,-19.106034,16.367710,724.990000,827.330000,-26.600000
1.688,0.001786,20.542218,-20.412962,13.873537,643.930000,833.350000,-66.360000
1.690,0.001754,21.762975,-21.336907,11.096915,567.560000,817.950000,-106.050000
1.692,0.001751,22.931071,-21.925742,9.014448,496.440000,790.440000,-129.150000
1.694,0.001750,23.864591,-22.093297,7.463370,396.270000,762.090000,-138.810000
1.696,0.001751,24.893856,-21.925742,5.658565,320.040000,715.680000,-140.560000
1.698,0.001775,25.765141,-21.748613,4.983558,221.340000,676.830000,-136.500000
1.700,0.001749,27.163027,-21.107118,4.399510,148.120000,634.060000,-128.660000
1.702,0.001748,28.101334,-20.235833,3.987804,79.940000,572.600000,-123.830000
1.704,0.001752,29.054002,-19.139545,3.317585,-6.580000,521.780000,-118.860000
1.706,0.001753,29.886989,-17.641127,3.312798,-71.610000,455.280000,-115.780000
1.708,0.001778,30.322632,-15.778875,3.150030,-147.420000,403.690000,-112.140000
1.710,0.001764,30.600294,-13.490555,2.628217,-196.700000,332.500000,-108.780000
1.712,0.001752,30.705614,-11.484685,3.011199,-242.620000,277.200000,-100.660000
1.714,0.001791,30.542846,-9.038385,3.614396,-299.810000,222.390000,-89.810000
1.716,0.001755,30.332206,-6.802725,4.514405,-333.900000,148.750000,-76.790000
1.718,0.001794,29.997096,-4.385148,5.146326,-373.030000,92.400000,-63.350000
1.720,0.001749,29.293366,-2.254809,6.860172,-396.270000,22.960000,-52.990000
1.722,0.001748,28.479529,1.129798,7.784117,-416.640000,-27.090000,-47.670000
1.724,0.001782,27.445476,1.934061,9.344771,-433.650000,-73.010000,-45.290000
1.726,0.001764,24.544385,4.121848,10.488930,-438.200000,-128.730000,-47.670000
1.728,0.001813,23.558205,6.041547,11.546919,-433.160000,-166.460000,-52.500000
1.730,0.001778,20.762433,7.946885,12.332033,-422.170000,-210.280000,-55.230000
1.732,0.001781,17.890065,9.622433,12.853847,-401.800000,-238.490000,-53.340000
1.734,0.001781,14.558118,12.221926,13.165020,-385.700000,-261.800000,-47.460000
1.736,0.001779,11.704900,12.533099,13.375660,-366.240000,-287.700000,-38.570000
1.738,0.001781,9.047959,13.677259,13.887899,-337.470000,-302.120000,-21.980000
1.740,0.001782,6.711767,14.644290,14.184711,-313.180000,-315.000000,-11.690000
1.742,0.001775,4.533554,15.568235,14.232583,-277.270000,-318.780000,-1.400000
1.744,0.001778,2.422364,16.123559,14.510246,-249.970000,-314.020000,-0.140000
1.746,0.001779,0.220215,16.520903,15.467702,-197.470000,-305.060000,-1.890000
1.748,0.001786,-1.603739,17.066653,14.955463,-163.170000,-290.990000,-8.540000
1.750,0.001776,-3.552162,17.186335,14.366627,-135.520000,-269.150000,-13.860000
1.752,0.001874,-5.294732,17.262932,14.893228,-97.160000,-249.340000,-18.830000
1.753,0.001666,-6.946343,17.176761,14.644290,-61.810000,-227.920000,-19.740000
1.756,0.001458,-8.262845,17.081015,14.055454,-28.070000,-195.860000,-16.380000
1.758,0.001481,2.992050,8.641040,38.212069,196.420000,-120.610000,92.330000
1.760,0.001458,8.176674,6.730916,6.702192,445.270000,-189.630000,316.260000
1.762,0.001456,17.832618,-5.232497,7.089962,432.950000,-374.290000,593.040000
1.764,0.001456,26.794406,-13.404384,-0.067022,376.670000,-482.440000,907.480000
1.766,0.001456,38.618988,-17.377826,-5.342604,180.530000,-625.100000,973.070000
1.768,0.001487,49.988778,-21.935317,0.684581,-5.040000,-614.600000,792.470000
1.770,0.001459,55.992027,-26.009292,5.706438,-60.480000,-639.660000,518.770000
1.772,0.001457,57.059590,-26.966748,2.992050,-135.870000,-630.280000,215.530000
1.774,0.001455,52.210076,-29.192833,6.209102,-227.010000,-665.980000,-63.560000
1.776,0.001458,46.814811,-30.198162,7.937310,-290.360000,-722.890000,-146.230000
1.778,0.001479,40.701455,-30.686465,9.153279,-433.720000,-793.310000,-75.530000
1.780,0.001457,34.860973,-32.352438,16.439520,-558.320000,-919.940000,13.160000
1.782,0.001456,29.752945,-30.389653,16.066112,-677.530000,-974.120000,108.010000
1.784,0.001457,31.744454,-27.986439,21.016159,-808.220000,-1028.440000,135.450000
1.786,0.001457,33.391278,-26.349189,26.392275,-944.440000,-1062.670000,103.670000
1.788,0.001478,31.921583,-21.987977,29.700285,-1033.340000,-1068.550000,-59.780000
1.790,0.001457,28.311974,-17.981024,34.458841,-1090.390000,-1041.110000,-224.350000
1.792,0.001457,20.882115,-13.097998,38.049301,-1159.900000,-1025.220000,-407.050000
1.794,0.001456,11.834156,-7.142622,41.237630,-1189.580000,-1006.600000,-476.000000
1.796,0.001457,2.168638,-2.321831,42.295619,-1193.500000,-995.050000,-480.760000
1.798,0.001467,-6.601659,3.552162,45.536607,-1180.060000,-1002.260000,-397.530000
1.800,0.001504,-13.476193,9.852222,43.813187,-1113.700000,-995.820000,-289.800000
1.802,0.001552,-19.445931,15.520362,41.247204,-1055.040000,-960.890000,-165.200000
1.804,0.001540,-23.323628,21.576271,37.924832,-986.090000,-922.530000,-123.340000
1.806,0.001438,-25.655034,25.875248,37.345571,-942.480000,-842.660000,-127.400000
1.808,0.001531,-29.092301,30.025820,36.038644,-847.980000,-728.910000,-184.030000
1.810,0.001455,-33.357767,35.756194,32.687548,-716.310000,-633.080000,-227.220000
1.812,0.001455,-37.661532,39.380165,31.801901,-654.780000,-543.970000,-245.560000
1.814,0.001456,-41.151459,42.965838,29.853478,-511.210000,-428.190000,-204.050000
1.816,0.001457,-43.679143,46.005761,25.401308,-349.160000,-345.660000,-103.180000
1.818,0.001468,-55.963303,45.852568,24.151828,-204.820000,-234.290000,25.270000
1.820,0.001439,-69.583115,44.746706,20.412962,-13.510000,-151.060000,217.770000
1.822,0.001531,-37.091845,27.478987,13.969283,83.720000,69.090000,54.040000
1.824,0.001555,-17.258144,29.341239,15.146954,209.020000,159.320000,-30.450000
1.826,0.001528,-4.327701,28.149206,17.210272,287.840000,182.700000,62.510000
1.828,0.001522,2.920241,23.697036,19.259227,394.450000,128.730000,219.590000
1.830,0.001457,11.312343,19.522528,13.543215,525.000000,79.100000,382.760000
1.832,0.001457,19.589550,11.953838,9.325621,558.180000,27.720000,468.300000
1.834,0.001453,26.181634,1.541504,9.000086,580.020000,13.090000,397.740000
1.836,0.001455,28.982193,-5.567607,4.480894,602.630000,8.540000,203.840000
1.838,0.001498,26.306104,-11.518196,0.172342,573.230000,36.540000,27.580000
1.840,0.001461,20.073065,-16.338987,-3.738866,490.490000,59.990000,-146.160000
1.842,0.001455,11.178299,-19.560826,-3.695780,398.860000,63.980000,-197.330000
1.844,0.001456,5.385690,-20.628390,-5.735161,283.080000,62.370000,-177.240000
1.846,0.001455,0.349471,-19.848063,-7.578264,177.660000,42.910000,-94.570000
1.848,0.001479,-1.507993,-18.004960,-5.428776,71.050000,39.200000,-35.000000
1.850,0.001457,-1.182458,-13.672472,-3.188328,-31.780000,43.470000,-10.430000
1.852,0.001452,0.904796,-9.895308,-1.268629,-92.330000,77.630000,-45.220000
1.854,0.001477,2.130340,-4.586214,1.053202,-145.600000,115.570000,-108.080000
1.856,0.001611,2.211723,1.105862,3.566524,-164.780000,161.980000,-202.090000
1.858,0.001617,1.005329,7.066025,6.333571,-168.910000,196.980000,-256.690000
1.860,0.001579,-1.105862,11.025106,8.200611,-152.040000,219.030000,-259.980000
1.862,0.001580,-3.073434,15.486851,10.024564,-127.960000,242.690000,-230.930000
1.864,0.001585,-4.696322,20.618815,4.303765,-61.600000,249.130000,-161.560000
1.866,0.001581,-9.143705,21.198076,8.056992,24.430000,261.660000,-111.510000
1.868,0.001617,-12.810761,19.129971,11.034680,100.380000,285.530000,-61.180000
1.870,0.001605,-17.143250,19.326249,10.819253,139.790000,343.140000,-62.090000
1.872,0.001602,-19.551252,19.828914,10.680422,170.800000,402.080000,-85.540000
1.874,0.001600,-18.268260,21.877870,11.834156,152.810000,462.420000,-131.740000
1.876,0.001600,-16.008664,25.214604,17.732085,162.960000,542.150000,-171.220000
1.878,0.001634,-12.375119,29.647625,24.060869,186.760000,620.760000,-238.420000
1.880,0.001602,-20.848604,30.504548,30.083268,329.350000,701.750000,-253.890000
1.882,0.001645,-21.341694,33.252447,26.181634,413.350000,768.670000,-220.360000
1.884,0.001602,-24.410341,31.318386,34.860973,570.150000,818.160000,-88.970000
1.886,0.001598,-22.844900,28.570487,34.918420,670.880000,833.420000,52.780000
1.888,0.001605,-18.311346,24.664067,38.259942,690.690000,847.560000,195.160000
1.890,0.001594,-12.226713,22.753942,39.413676,761.670000,876.820000,246.540000
1.892,0.001594,-6.841023,14.845355,43.257862,950.040000,931.910000,241.640000
1.894,0.001596,-2.393640,9.349558,37.867385,1025.080000,973.770000,214.830000
1.896,0.001596,1.627675,3.671844,39.490273,1008.840000,1002.960000,162.610000
1.898,0.001600,4.279828,-2.015445,41.807316,1040.200000,1032.220000,107.660000
1.900,0.001597,5.840482,-7.118685,37.369508,1075.690000,1063.090000,69.230000
1.902,0.001595,8.377740,-9.564985,34.257776,1045.520000,1084.020000,52.850000
1.904,0.001595,10.522441,-13.241616,33.645004,1010.590000,1087.800000,41.300000
1.906,0.001595,13.504917,-16.238454,31.950307,973.070000,1089.410000,38.080000
1.908,0.001600,16.621436,-18.976778,28.450805,931.770000,1076.250000,33.320000
1.910,0.001596,19.699657,-21.092756,25.118858,851.410000,1060.290000,19.390000
1.912,0.001597,22.849687,-22.686920,22.706069,780.640000,1045.800000,-10.570000
1.914,0.001626,25.918334,-23.673100,19.450719,714.560000,1017.170000,-44.940000
1.916,0.001601,28.785915,-24.415128,15.984728,616.210000,997.080000,-90.580000
1.918,0.001607,31.093384,-24.530023,13.428320,534.520000,953.120000,-123.830000
1.920,0.001595,33.147127,-24.558746,11.484685,427.840000,910.560000,-145.040000
1.922,0.001597,34.568949,-24.295446,9.440516,348.880000,862.680000,-165.550000
1.924,0.001598,36.019495,-23.610865,7.602201,274.190000,788.480000,-163.100000
1.926,0.001595,37.355146,-22.595962,5.974525,171.710000,727.090000,-155.750000
1.928,0.001605,38.523242,-21.518824,4.624512,98.280000,635.110000,-139.510000
1.930,0.001597,39.782297,-19.996469,3.446842,3.220000,565.530000,-124.600000
1.932,0.001631,40.634433,-18.464539,2.532471,-60.340000,469.840000,-110.040000
1.934,0.001605,41.247204,-16.353348,1.905337,-138.390000,389.900000,-103.040000
1.936,0.001598,41.620612,-14.337904,1.790443,-194.110000,315.840000,-99.120000
1.938,0.001599,41.309439,-12.336821,2.288320,-244.020000,215.670000,-97.580000
1.940,0.001599,40.739753,-9.895308,2.987263,-301.070000,144.970000,-95.620000
1.942,0.001594,39.471124,-7.875076,3.810675,-337.260000,47.460000,-91.630000
1.944,0.001599,36.881205,-5.510159,5.050580,-378.280000,-21.700000,-87.780000
1.946,0.001597,35.804067,-3.317585,6.376657,-399.630000,-89.460000,-77.420000
1.948,0.001598,32.941274,-1.464908,7.611775,-412.790000,-170.870000,-72.870000
1.950,0.001594,28.292825,0.335110,8.813382,-423.640000,-224.490000,-64.820000
1.952,0.001595,25.602373,2.015445,10.938935,-429.170000,-286.160000,-63.350000
1.954,0.001634,23.323628,4.222381,17.162399,-392.070000,-305.550000,0.210000
1.956,0.001595,26.401849,-0.416493,8.799021,-179.060000,-388.640000,132.300000
1.958,0.001596,28.551338,-1.924487,2.977688,-229.670000,-536.410000,300.720000
1.960,0.001597,34.530651,-6.391019,8.669764,-313.740000,-594.160000,498.680000
1.962,0.001597,41.687634,-9.880946,11.824582,-318.850000,-724.360000,586.810000
1.964,0.001593,47.221730,-11.762347,9.617646,-387.030000,-811.790000,552.580000
1.966,0.001597,49.864308,-13.093211,12.571397,-456.890000,-851.270000,429.520000
1.968,0.001604,48.533445,-14.390564,16.894311,-521.290000,-902.580000,263.200000
1.970,0.001606,43.592972,-13.773005,16.841651,-550.620000,-892.570000,50.540000
1.972,0.001604,37.091845,-13.346937,19.666146,-616.420000,-943.530000,-28.560000
1.974,0.001595,30.978489,-12.288948,25.860887,-671.090000,-982.030000,-31.360000
1.976,0.001598,25.157156,-12.130968,27.201325,-686.490000,-1049.300000,28.910000
1.978,0.001605,22.423620,-10.752231,29.130599,-745.640000,-1112.790000,101.570000
1.980,0.001595,20.326791,-10.163395,32.539142,-784.210000,-1132.460000,149.730000
1.982,0.001596,19.670934,-9.713391,33.238085,-807.100000,-1146.530000,130.340000
1.984,0.001596,19.623061,-7.271878,32.366800,-862.960000,-1128.610000,7.910000
1.986,0.001596,16.401221,-6.429317,36.143964,-920.150000,-1081.430000,-122.780000
1.988,0.001600,12.753314,-3.777164,37.843448,-949.480000,-1055.250000,-321.020000
1.990,0.001594,7.123473,0.186704,37.943981,-939.960000,-990.710000,-414.540000
1.992,0.001601,-0.617559,3.638333,40.385494,-898.870000,-985.110000,-446.460000
1.994,0.001600,-4.653236,7.511242,40.284961,-871.080000,-966.000000,-379.260000
1.996,0.001596,-10.287865,10.565527,38.298240,-834.400000,-963.970000,-289.940000
1.998,0.001599,-12.987891,12.782038,38.044514,-795.410000,-958.650000,-171.080000
2.000,0.001597,-15.754938,16.597500,34.827462,-724.920000,-920.500000,-118.650000
2.002,0.001596,-16.592712,17.794320,34.118945,-692.860000,-882.000000,-97.930000
2.004,0.001596,-17.420912,20.470409,32.376375,-648.410000,-820.120000,-123.550000
2.006,0.001595,-17.784745,22.505003,29.465708,-601.580000,-726.810000,-171.220000
2.008,0.001703,-19.723594,23.534268,28.953469,-526.960000,-650.090000,-221.900000
2.010,0.001839,-22.926284,25.808226,26.832704,-444.850000,-554.610000,-233.100000
2.012,0.001613,-24.879494,27.048132,22.753942,-357.490000,-493.780000,-218.820000
2.014,0.001602,-26.440147,28.474741,20.810306,-308.560000,-418.390000,-164.850000
2.016,0.001600,-26.770470,28.206654,21.212438,-218.050000,-375.130000,-72.800000
2.018,0.001612,-25.889610,27.656117,19.915085,-142.520000,-299.040000,-22.190000
2.020,0.001599,-23.759271,27.373667,17.081015,-46.270000,-243.460000,16.730000
2.022,0.001600,-20.240620,25.171518,16.358136,28.420000,-180.180000,25.690000
2.024,0.001595,-16.544840,22.940646,13.950134,99.750000,-107.240000,37.520000
2.026,0.001596,-12.892145,19.536890,12.849060,185.150000,-60.900000,36.820000
2.028,0.001602,-8.578806,16.013452,11.494259,240.730000,-10.640000,60.340000
2.030,0.001594,-3.762802,11.901178,9.545836,299.670000,7.980000,83.440000
2.032,0.001600,0.722879,7.338900,7.224006,334.390000,22.680000,116.060000
2.034,0.001609,5.309094,3.188328,5.538883,349.930000,25.480000,135.310000
2.036,0.001598,9.215514,-1.450546,3.312798,357.840000,26.530000,141.400000
2.038,0.001602,11.647452,-5.744736,1.235118,342.650000,23.730000,126.700000
2.040,0.001601,12.719803,-8.995299,-0.421281,294.210000,23.100000,87.780000
2.042,0.001598,12.600121,-11.341066,-1.709059,248.430000,27.370000,32.060000
2.044,0.001599,11.518196,-12.633632,-2.542046,190.120000,34.650000,-18.130000
2.046,0.001598,9.871371,-12.863421,-2.762261,109.620000,39.900000,-50.610000
2.048,0.001603,8.420826,-11.949051,-2.149489,51.380000,40.320000,-65.240000
2.050,0.001593,6.874534,-9.976692,-1.646824,-15.400000,39.900000,-57.470000
2.052,0.001593,5.720800,-7.544753,-0.315960,-58.240000,43.400000,-58.800000
2.054,0.001769,5.055368,-4.404298,1.177671,-96.740000,48.090000,-58.450000
2.056,0.001610,4.480894,-1.239906,2.776622,-116.480000,57.470000,-66.290000
2.058,0.001607,3.978230,1.804805,3.973442,-122.640000,72.660000,-74.270000
2.060,0.001602,3.446842,4.887813,5.184624,-120.890000,85.470000,-83.510000
2.062,0.001597,2.829282,8.550082,6.290486,-109.410000,101.220000,-84.420000
2.064,0.001600,2.412789,9.866584,7.113898,-83.230000,111.580000,-75.110000
2.066,0.001599,2.178212,11.628303,8.004332,-56.560000,121.380000,-63.980000
2.068,0.001588,2.125552,13.126722,7.377198,-24.990000,131.740000,-47.320000
2.070,0.001578,2.522897,13.916623,8.937852,20.860000,140.000000,-34.650000
2.072,0.001578,2.743111,14.577268,9.134130,59.220000,151.830000,-24.500000
2.074,0.001644,3.001625,14.586842,9.426154,107.660000,161.560000,-25.550000
2.076,0.001761,3.207478,14.294818,9.564985,143.710000,177.310000,-26.600000
2.078,0.001903,3.173967,13.768217,9.713391,188.370000,190.750000,-35.560000
2.080,0.001957,3.087796,12.767676,9.493176,221.550000,207.900000,-37.100000
2.082,0.001691,2.910666,12.107031,8.023481,263.270000,218.330000,-38.150000
2.084,0.001681,0.962243,13.035763,2.149489,319.200000,229.390000,-36.890000
2.086,0.001682,-1.886188,7.257516,7.836777,331.520000,241.500000,-32.900000
2.088,0.001680,-4.811216,5.749523,4.337276,349.020000,262.010000,-38.500000
2.090,0.001621,-7.425071,5.859631,3.202690,325.640000,301.490000,-61.670000
2.092,0.007462,-9.004874,5.663352,6.855385,268.240000,486.360000,-184.240000
2.099,0.001605,-11.657027,14.333116,13.777792,252.280000,525.840000,-192.990000
2.102,0.001618,-14.385776,17.349103,20.154449,262.360000,575.890000,-173.880000
2.104,0.001633,-15.338445,19.340611,22.940646,372.960000,623.630000,-136.640000
2.106,0.001638,-18.091131,18.268260,19.910298,475.650000,675.920000,-85.820000
2.108,0.001666,-15.348020,16.832076,25.927908,482.580000,700.350000,-16.240000
2.110,0.001647,-12.748527,15.209189,27.699202,539.980000,724.640000,72.240000
2.112,0.001626,-7.583052,14.175136,26.377913,580.510000,757.470000,101.710000
2.114,0.001680,-4.921324,11.647452,29.776882,616.700000,787.080000,98.070000
2.116,0.001640,-0.799476,9.316047,28.881660,666.190000,829.290000,62.370000
2.118,0.001725,1.369162,5.045793,33.271596,739.970000,856.380000,28.280000
2.120,0.001643,2.063318,1.752144,27.569946,790.230000,883.890000,18.620000
2.122,0.001712,3.829824,-1.876614,26.751321,752.780000,897.330000,25.130000
2.124,0.001650,6.276124,-5.074517,28.110908,745.360000,903.210000,49.070000
2.126,0.001636,8.746361,-7.889437,26.109825,758.030000,899.150000,58.520000
2.128,0.001670,11.690538,-10.330950,23.117775,740.250000,892.360000,64.260000
2.130,0.001588,14.735248,-12.748527,21.298609,694.820000,882.700000,50.540000
2.132,0.001625,17.205484,-14.629928,19.943808,652.890000,870.520000,29.820000
2.134,0.001589,20.029980,-16.118772,17.578892,600.040000,860.720000,-16.660000
2.136,0.001606,21.734251,-17.042717,14.476735,549.710000,840.770000,-48.720000
2.138,0.001716,23.390650,-17.310804,11.551707,464.590000,824.180000,-90.790000
2.140,0.001601,24.975240,-17.602829,10.120310,399.560000,795.480000,-107.870000
2.142,0.001612,26.239082,-17.487934,8.674551,337.260000,753.340000,-117.180000
2.144,0.001623,27.885906,-17.253357,6.218677,255.850000,712.880000,-118.160000
2.146,0.001593,29.188046,-16.808140,6.572935,196.350000,651.490000,-109.200000
2.148,0.001596,30.571570,-16.032601,5.562819,119.070000,603.330000,-96.740000
2.150,0.001591,32.132223,-15.257061,5.409626,64.750000,529.830000,-85.890000
2.152,0.001593,33.324256,-14.251733,4.930898,-4.480000,473.200000,-81.270000
2.154,0.001591,34.501927,-13.011827,4.567065,-48.510000,415.450000,-73.780000
2.155,0.001664,35.167359,-11.331492,4.600576,-92.540000,335.510000,-73.640000
2.157,0.001175,35.665236,-9.780413,4.145784,-131.810000,275.240000,-72.100000
2.159,0.001147,35.737045,-8.023481,4.145784,-178.850000,211.610000,-67.060000
2.161,0.001146,35.430659,-6.094207,4.480894,-208.670000,150.360000,-62.090000
2.163,0.001146,34.750866,-4.270254,5.203773,-234.710000,65.870000,-52.360000
2.165,0.001146,33.740749,-1.282991,6.031973,-265.370000,4.130000,-42.770000
2.167,0.001147,32.366800,-0.660645,6.750065,-283.710000,-74.480000,-33.250000
2.169,0.001146,30.179013,1.019691,7.549541,-301.070000,-129.920000,-29.260000
2.171,0.001146,27.660904,3.643120,8.344229,-307.510000,-178.080000,-29.750000
2.173,0.001145,24.137466,3.619184,9.368707,-312.620000,-233.030000,-34.440000
2.175,0.001147,20.422536,4.868664,10.048501,-315.210000,-266.280000,-40.530000
2.177,0.001147,16.678884,5.917078,10.967658,-316.610000,-302.540000,-42.070000
2.179,0.001144,12.786825,7.118685,11.949051,-313.530000,-324.030000,-40.460000
2.181,0.001144,8.842106,8.037843,12.652781,-306.530000,-344.470000,-29.680000
2.183,0.001144,5.682501,9.172428,12.987891,-296.240000,-353.220000,-20.370000
2.185,0.001144,2.594706,10.091586,13.710770,-287.490000,-356.440000,-5.530000
2.187,0.001148,-0.028724,10.982020,14.160774,-273.350000,-352.800000,0.070000
2.189,0.001146,-8.305931,22.787453,1.345226,-233.940000,-349.440000,4.130000
2.191,0.001145,2.714388,7.563902,13.203318,3.640000,-363.650000,130.200000
2.193,0.001143,7.343688,4.088337,7.434646,15.260000,-390.950000,265.440000
2.195,0.001146,14.524608,0.205853,8.248483,-23.240000,-479.220000,441.280000
2.197,0.001148,20.125725,-3.662269,8.535720,-68.810000,-542.640000,523.670000
2.199,0.001146,27.775799,-4.050039,4.911749,-122.570000,-561.890000,491.680000
2.201,0.001147,33.175850,-5.821332,8.789446,-200.550000,-591.010000,384.300000
2.203,0.001161,34.482778,-6.194740,10.747444,-231.910000,-568.820000,224.350000
2.205,0.001297,31.591261,-5.912291,9.545836,-240.800000,-574.350000,15.190000
2.208,0.001196,27.158239,-5.696863,9.775626,-273.280000,-590.100000,-76.510000
2.209,0.001152,21.834784,-5.893142,11.542132,-310.450000,-633.640000,-70.840000
2.211,0.001147,18.387942,-6.367082,14.931526,-333.480000,-697.060000,10.710000
2.213,0.001146,16.463456,-6.649532,15.051208,-364.490000,-740.320000,147.560000
2.215,0.001145,16.396434,-6.304848,15.807599,-395.710000,-797.650000,215.110000
2.217,0.001161,16.688458,-6.601659,16.243241,-448.560000,-807.030000,219.870000
2.220,0.001304,16.688458,-5.648990,16.109197,-500.010000,-794.640000,133.280000
2.222,0.001282,15.951217,-4.658023,17.899640,-529.200000,-775.670000,-17.360000
2.223,0.001148,13.548002,-3.700567,20.197534,-551.600000,-743.680000,-136.010000
2.225,0.001147,8.985725,-0.871285,19.905510,-573.790000,-705.880000,-235.830000
2.227,0.001148,3.073434,1.440971,21.925742,-587.020000,-682.080000,-292.320000
2.229,0.001145,-2.733537,4.155359,22.744367,-584.010000,-649.530000,-297.360000
2.231,0.001145,-7.362837,7.319751,21.657655,-552.930000,-653.800000,-253.400000
2.233,0.001144,-9.971904,9.713391,20.805519,-532.070000,-641.690000,-153.370000
2.235,0.001152,-10.982020,11.685750,21.274672,-506.800000,-624.260000,-83.020000
2.238,0.001396,-11.111277,13.447470,20.422536,-465.850000,-590.170000,-31.990000
2.240,0.001157,-11.221384,14.357053,18.627306,-446.110000,-552.580000,-24.010000
2.241,0.001147,-11.010744,16.056537,17.861342,-403.270000,-509.110000,-43.120000
2.243,0.001146,-10.996382,16.262390,18.028896,-363.300000,-453.880000,-85.820000
2.245,0.001146,-12.715016,16.822502,16.348561,-318.290000,-389.270000,-107.590000
2.247,0.001140,-13.782579,17.133675,15.486851,-267.820000,-343.000000,-122.710000
2.249,0.001131,-14.605991,17.698574,14.232583,-244.790000,-289.310000,-97.790000
2.251,0.001129,-14.749610,17.545381,13.413959,-194.740000,-258.860000,-66.010000
2.253,0.002051,-13.394809,17.636340,12.360757,-123.970000,-207.550000,3.710000
2.256,0.001250,-11.360215,17.219846,12.365544,-102.690000,-189.490000,31.150000
2.258,0.001398,-8.176674,16.812927,11.087340,-57.260000,-147.140000,39.270000
2.260,0.001239,-5.538883,16.056537,11.408088,-11.410000,-110.110000,24.780000
2.262,0.001129,-3.346309,15.218763,10.359674,15.470000,-69.160000,9.590000
2.264,0.001125,-1.302140,14.084178,9.536262,65.310000,-39.830000,-8.750000
2.266,0.001126,0.588835,12.446928,9.435729,104.720000,-22.050000,-13.580000
2.268,0.001179,1.981934,10.914998,7.989970,133.140000,-5.040000,-4.900000
2.270,0.001122,3.312798,8.937852,7.717095,163.450000,0.210000,9.590000
2.272,0.001122,4.021315,6.716554,7.070813,176.330000,6.160000,28.560000
2.274,0.001121,4.777705,5.079304,5.950589,189.840000,10.990000,31.360000
2.276,0.001121,5.625054,3.513864,5.299519,196.560000,17.290000,28.840000
2.278,0.001157,6.405381,1.967572,4.859089,197.120000,25.200000,19.740000
2.280,0.001139,6.999003,0.751603,4.069188,192.500000,30.380000,8.330000
2.282,0.001141,7.171345,-0.205853,3.667056,184.170000,35.840000,0.000000
2.284,0.001143,7.563902,-1.005329,3.365458,169.610000,37.380000,-3.150000
2.286,0.001138,7.769755,-1.551079,3.121307,158.410000,37.450000,-2.590000
2.288,0.001153,8.286782,-1.943636,2.829282,138.110000,35.280000,1.680000
2.290,0.001124,8.717637,-2.068105,2.786197,119.700000,33.180000,3.080000
2.292,0.001123,8.937852,-1.914912,2.953752,102.550000,31.500000,0.700000
2.294,0.001125,9.038385,-1.517568,3.111732,81.200000,32.060000,-6.440000
2.296,0.001124,8.731999,-0.938307,3.264925,67.480000,35.630000,-24.920000
2.298,0.001156,7.831990,-0.301599,3.710142,50.680000,39.900000,-38.710000
2.300,0.001136,6.510701,0.900009,4.088337,38.780000,45.920000,-57.610000
2.302,0.001138,5.175050,1.991508,4.772918,29.190000,56.210000,-66.570000
2.304,0.001136,3.734078,3.298436,5.304306,22.190000,64.120000,-89.460000
2.306,0.001138,2.527684,4.777705,5.936227,21.420000,78.190000,-72.240000
2.308,0.001157,1.713846,6.046335,6.477190,25.760000,89.530000,-69.650000
2.310,0.001222,1.182458,7.415497,7.051663,32.760000,105.280000,-65.100000
2.312,0.001136,1.019691,8.406464,7.630924,48.720000,118.510000,-61.110000
2.314,0.001220,0.890434,9.536262,8.138376,70.210000,137.270000,-59.430000
2.316,0.001140,0.981392,10.354887,8.569231,81.200000,151.130000,-61.250000
2.318,0.001163,0.923945,10.876700,9.306472,108.290000,167.650000,-65.170000
2.320,0.001126,0.737241,11.365003,9.531474,128.100000,189.630000,-72.450000
2.322,0.001126,0.402132,11.671389,9.727753,157.500000,207.760000,-80.710000
2.324,0.001122,-0.263300,13.548002,4.303765,183.750000,226.030000,-89.740000
2.326,0.001124,-2.297894,13.155445,3.868122,238.910000,248.710000,-98.770000
2.328,0.001148,-7.329326,9.450091,10.072437,248.150000,270.550000,-107.380000
2.330,0.001122,-10.249566,9.991053,5.845269,258.370000,315.280000,-124.810000
2.332,0.001124,-12.437353,11.207022,8.483060,199.010000,357.490000,-154.490000
2.334,0.001122,-13.830452,11.786283,15.032059,209.440000,412.790000,-198.030000
2.336,0.001124,-15.362382,13.576726,18.229962,248.570000,483.770000,-218.330000
2.338,0.001149,-16.587925,15.395892,15.936855,287.420000,537.530000,-224.140000
2.340,0.001125,-16.563989,13.643748,22.763516,297.920000,601.090000,-191.240000
2.342,0.001124,-15.132592,15.678342,21.700740,370.090000,619.430000,-129.710000
2.344,0.001125,-11.518196,14.759184,20.590091,413.140000,647.640000,-52.920000
2.346,0.001125,-7.980396,13.677259,23.041179,455.560000,669.410000,5.950000
2.348,0.001159,-3.959081,11.283619,23.596503,494.900000,697.830000,37.380000
2.350,0.001138,0.440430,7.755394,22.921497,576.800000,713.510000,59.570000
2.352,0.001140,4.322914,5.467074,19.450719,595.000000,720.230000,57.540000
2.354,0.001142,8.181462,2.297894,20.599666,592.270000,732.480000,49.280000
2.356,0.001141,11.379365,-0.497877,20.278918,614.250000,727.440000,24.150000
2.358,0.001160,13.926198,-2.690451,17.406550,614.040000,732.620000,1.400000
2.360,0.001200,15.424616,-5.050580,16.396434,581.420000,717.920000,-17.920000
2.362,0.001146,15.750151,-6.659106,13.883112,568.960000,713.370000,-24.430000
2.364,0.001140,18.349644,-8.195823,12.126180,540.330000,689.290000,-28.840000
2.366,0.001142,18.675179,-9.756477,10.680422,496.650000,667.520000,-30.940000
2.368,0.001184,20.494346,-11.178299,10.168183,452.200000,636.720000,-29.190000
2.370,0.001139,23.208733,-12.087882,8.746361,392.560000,607.740000,-38.010000
2.372,0.001124,24.008209,-12.791612,7.937310,352.380000,581.350000,-47.390000
2.374,0.001124,25.406095,-13.251191,6.960705,304.850000,538.440000,-61.880000
2.376,0.001124,26.875790,-13.260766,5.998462,238.070000,503.790000,-67.970000
2.378,0.001158,27.833246,-12.973529,5.495797,187.600000,451.850000,-79.870000
2.380,0.001140,28.685382,-12.442141,4.753769,125.370000,407.960000,-77.770000
2.382,0.001138,29.336452,-11.834156,4.140997,79.450000,361.550000,-74.200000
2.384,0.001141,29.843904,-10.958084,3.796313,21.280000,296.240000,-62.860000
2.386,0.001143,30.341781,-9.924031,3.623971,-19.740000,245.070000,-52.220000
2.388,0.001161,30.528485,-8.736786,3.384607,-57.610000,175.490000,-40.390000
2.390,0.001141,30.533272,-7.511242,3.676631,-103.180000,124.390000,-31.990000
2.392,0.001141,30.174226,-6.113357,3.906420,-134.330000,55.440000,-29.120000
2.394,0.001141,29.532730,-4.734620,4.619725,-172.340000,8.610000,-26.810000
2.396,0.001141,28.130057,-3.365458,4.969197,-195.230000,-37.450000,-31.430000
2.398,0.001204,26.071527,-2.020232,5.787822,-221.760000,-94.080000,-32.480000
2.400,0.001140,23.658738,-0.914370,6.424530,-235.900000,-131.460000,-39.200000
2.402,0.001140,20.556580,0.172342,7.061238,-247.870000,-174.720000,-40.600000
2.404,0.001140,17.248570,1.373949,7.750606,-263.270000,-201.110000,-43.050000
2.406,0.001139,13.887899,2.427151,8.545295,-272.790000,-224.000000,-36.120000
2.408,0.001160,10.508080,3.427692,9.205939,-281.960000,-246.330000,-31.920000
2.410,0.001141,7.185707,4.557491,9.842648,-285.460000,-256.760000,-19.460000
2.412,0.001139,10.551165,-0.157980,24.415128,-261.240000,-231.420000,8.750000
2.414,0.001139,10.584676,3.480353,5.773460,-35.700000,-325.360000,138.040000
2.416,0.001140,15.965579,0.507452,0.225002,-66.570000,-351.470000,349.160000
2.418,0.001162,23.902889,-5.912291,9.134130,-154.840000,-462.490000,507.710000
2.420,0.001141,28.144419,-10.622974,8.909128,-139.440000,-538.650000,612.150000
2.422,0.001139,33.817346,-11.207022,0.957456,-188.650000,-585.970000,581.000000
2.424,0.001141,37.130144,-13.117147,5.218135,-326.270000,-616.350000,468.300000
2.426,0.001141,42.046680,-13.782579,9.703817,-377.300000,-626.570000,268.450000
2.428,0.001170,39.451974,-13.088424,9.555411,-429.310000,-643.160000,139.160000
2.430,0.001129,37.838661,-13.385235,13.844814,-473.480000,-676.340000,47.740000
2.432,0.001126,34.995017,-12.461290,12.566610,-473.760000,-738.500000,56.420000
2.434,0.001144,34.396607,-12.614483,15.103868,-556.990000,-820.680000,161.000000
2.437,0.001653,33.218936,-11.949051,18.177302,-653.030000,-934.920000,214.270000
2.438,0.001150,34.779589,-10.761805,19.264015,-698.110000,-954.240000,201.320000
2.440,0.001153,35.330126,-10.388398,25.832163,-772.310000,-980.280000,117.950000
2.442,0.001139,31.485941,-9.182003,28.618360,-801.290000,-999.040000,-10.080000
2.444,0.001138,26.966748,-6.821874,31.031149,-825.020000,-975.170000,-199.010000
2.446,0.001139,18.488475,-4.088337,33.443938,-844.550000,-969.360000,-304.010000
2.448,0.001147,10.594251,0.263300,33.391278,-854.350000,-953.540000,-350.910000
2.450,0.001137,3.489927,2.470236,33.577982,-853.930000,-968.030000,-316.470000
2.452,0.001137,-1.814379,5.964951,34.243414,-821.590000,-972.930000,-231.770000
2.454,0.001137,-5.907504,9.641582,34.157243,-809.550000,-990.080000,-108.570000
2.456,0.001421,-8.095290,10.972446,32.610951,-773.920000,-971.390000,-36.820000
2.458,0.001236,-11.140001,13.059700,30.887531,-739.060000,-913.500000,-50.470000
2.460,0.001261,-14.687375,14.366627,30.231673,-692.790000,-863.940000,-88.760000
2.462,0.001142,-18.871458,16.319838,26.330040,-656.950000,-776.440000,-145.040000
2.464,0.001146,-22.643834,18.593796,25.765141,-627.060000,-686.910000,-201.040000
2.466,0.001138,-29.408261,21.552335,22.610323,-572.670000,-626.150000,-195.510000
2.468,0.001137,-33.032232,23.859804,21.604995,-529.410000,-571.270000,-146.090000
2.470,0.001138,-35.038102,25.894398,21.346482,-482.650000,-483.000000,-79.240000
2.472,0.001144,-35.794493,28.661445,18.536348,-400.050000,-414.960000,8.890000
2.474,0.001138,-35.727471,31.969456,17.942725,-315.420000,-321.860000,59.360000
2.476,0.001136,-51.338791,34.951931,18.948054,-201.670000,-224.000000,152.880000
2.478,0.001140,-47.542478,33.319469,18.957629,-111.580000,-157.780000,325.220000
2.480,0.001142,-18.182089,21.490100,10.977233,12.460000,5.600000,185.080000
2.482,0.001137,-2.120765,21.547547,13.346937,54.880000,106.680000,-14.420000
2.484,0.001135,6.228251,21.198076,17.018780,124.810000,148.890000,-47.600000
2.486,0.001134,12.336821,19.436357,13.586301,234.990000,136.850000,22.120000
2.488,0.001142,17.569318,14.821419,12.145329,285.040000,80.990000,148.960000
2.490,0.001135,21.729464,9.933606,9.033597,347.060000,42.210000,214.620000
2.492,0.001134,23.893314,4.030890,6.663894,364.140000,12.460000,213.430000
2.494,0.001135,22.950220,-1.546291,4.222381,368.270000,6.090000,143.780000
2.496,0.001142,20.130512,-5.821332,1.804805,346.990000,14.630000,10.220000
2.498,0.001137,14.313967,-10.029352,-0.258513,315.980000,40.040000,-93.660000
2.500,0.001137,7.793692,-12.059158,-2.542046,247.520000,57.050000,-144.760000
2.502,0.001136,2.987263,-12.868209,-2.695239,179.830000,58.940000,-142.800000
2.504,0.001143,-0.038298,-13.586301,-3.590460,97.860000,59.850000,-91.700000
2.506,0.001137,-1.268629,-11.604367,-2.058530,32.550000,55.020000,-31.430000
2.508,0.001134,-0.871285,-8.521358,-1.273416,-15.820000,60.550000,15.470000
2.510,0.001134,0.746816,-5.289944,0.335110,-77.140000,74.760000,20.090000
2.512,0.001385,2.020232,-1.689910,2.494173,-104.020000,120.260000,-27.160000
2.514,0.001342,2.685664,2.283533,4.054826,-120.680000,146.440000,-114.170000
2.516,0.001150,2.532471,6.055909,5.639416,-118.370000,181.160000,-170.170000
2.518,0.001127,1.235118,9.837860,7.042089,-109.900000,222.390000,-212.450000
2.520,0.001193,-0.368621,13.193744,8.770297,-81.410000,244.300000,-224.000000
2.522,0.001128,-1.929274,16.248028,10.024564,-53.130000,264.180000,-202.370000
2.524,0.001123,-2.977688,18.565072,11.561281,2.310000,275.170000,-166.250000
2.526,0.001123,-3.370245,20.499133,9.316047,60.760000,286.020000,-104.580000
2.528,0.001131,-5.897929,22.136383,5.668140,179.480000,296.100000,-77.070000
2.530,0.001123,-8.937852,18.273048,10.977233,225.890000,319.830000,-55.160000
2.532,0.001123,-12.571397,17.282081,8.832532,269.220000,373.170000,-73.850000
2.534,0.001125,-15.558660,17.114526,8.856468,273.980000,421.540000,-119.770000
2.536,0.001130,-15.750151,19.082098,10.067650,284.270000,475.790000,-171.850000
2.538,0.001126,-13.959708,21.566696,14.438436,265.510000,552.860000,-204.540000
2.540,0.001126,-12.537886,25.583224,20.240620,246.680000,615.160000,-254.870000
2.542,0.001121,-18.703903,27.608244,23.606078,329.630000,680.400000,-288.260000
2.544,0.001131,-20.020405,30.600294,27.210900,433.370000,763.560000,-265.720000
2.546,0.001123,-20.570942,27.488562,29.633263,567.420000,811.370000,-164.500000
2.548,0.001136,-19.991681,25.262477,32.065201,642.600000,835.310000,-22.610000
2.550,0.001136,-15.841110,21.518824,35.995558,683.410000,815.850000,123.970000
2.552,0.001143,-9.105407,18.320921,36.790247,792.680000,845.460000,192.920000
2.554,0.001136,-3.877697,14.146412,38.504093,879.200000,887.880000,185.710000
2.556,0.001135,0.799476,7.314964,36.435988,983.990000,920.500000,165.060000
2.558,0.001139,5.452712,2.470236,34.272138,987.280000,959.700000,123.060000
2.560,0.001143,8.889979,-1.948423,35.985984,996.870000,972.230000,55.090000
2.562,0.001137,11.393726,-6.199528,33.874793,1026.900000,1001.140000,19.670000
2.564,0.001134,13.447470,-9.603284,30.083268,1016.890000,997.430000,-6.370000
2.566,0.001136,13.150658,-13.155445,27.785373,978.390000,989.310000,-0.140000
2.568,0.001144,15.304934,-16.233666,26.071527,923.090000,989.730000,5.320000
2.570,0.001179,18.488475,-18.541135,23.055540,878.220000,961.380000,24.710000
2.572,0.001137,21.619356,-20.106576,18.852309,804.860000,945.700000,13.860000
2.574,0.001138,24.759812,-21.887444,16.707607,740.180000,917.910000,-7.770000
2.576,0.001145,27.866757,-23.266181,14.347478,633.360000,888.020000,-46.830000
2.578,0.001138,30.068906,-24.084806,12.456503,569.520000,861.770000,-103.040000
2.580,0.001137,32.074776,-24.587470,10.613400,494.760000,815.990000,-130.270000
2.582,0.001137,33.223723,-24.439064,8.444762,395.150000,780.010000,-154.980000
2.584,0.001144,35.454596,-24.410341,7.276666,316.470000,728.490000,-164.430000
2.586,0.001137,35.296615,-23.601290,6.055909,213.710000,655.060000,-158.060000
2.588,0.001137,36.455137,-22.543302,4.715471,142.240000,588.490000,-129.640000
2.590,0.001136,37.493977,-21.317758,3.523438,74.410000,496.930000,-105.910000
2.592,0.001144,38.331751,-20.001256,2.029807,-9.800000,426.230000,-77.910000
2.594,0.001137,39.169525,-18.368793,1.302140,-73.360000,330.050000,-61.460000
2.596,0.001137,39.772722,-16.650160,0.689368,-152.950000,262.290000,-51.520000
2.598,0.001136,39.882830,-14.634715,0.852136,-206.780000,191.660000,-59.360000
2.600,0.001159,39.270058,-12.394268,1.134585,-275.170000,104.230000,-62.930000
2.602,0.001139,38.317389,-10.455420,2.503747,-321.020000,37.590000,-87.430000
2.604,0.001137,36.522159,-8.224547,4.069188,-361.410000,-47.110000,-74.270000
2.606,0.001135,34.162030,-6.051122,5.897929,-406.210000,-107.520000,-71.820000
2.608,0.001146,31.193916,-4.083550,7.803266,-430.990000,-164.850000,-65.310000
2.610,0.001136,27.517285,-1.977147,4.011741,-454.930000,-234.570000,-56.630000
2.612,0.001136,33.597131,-9.933606,26.981110,-247.240000,-314.160000,95.620000
2.614,0.001138,37.747703,-5.917078,0.876072,-191.450000,-473.480000,291.270000
2.616,0.001145,45.187136,-11.862880,7.994758,-255.780000,-551.530000,553.840000
2.618,0.001137,52.731889,-18.809223,10.249566,-277.760000,-776.370000,841.540000
2.620,0.001139,57.193634,-23.108201,7.319751,-423.710000,-868.000000,912.380000
2.622,0.001138,62.349535,-25.205029,10.058075,-557.480000,-958.580000,757.120000
2.624,0.001145,68.927257,-26.684299,17.732085,-664.300000,-994.420000,550.060000
2.626,0.001138,67.984163,-26.961961,25.185880,-777.980000,-1007.090000,330.890000
2.628,0.001138,61.128778,-25.650246,24.654492,-801.010000,-1077.790000,87.570000
2.630,0.001138,57.811193,-24.908218,29.202408,-934.360000,-1112.440000,23.870000
2.632,0.001142,54.732972,-23.093839,36.905142,-1025.080000,-1234.870000,33.040000
2.634,0.001137,54.263819,-22.500216,44.483406,-1097.040000,-1330.280000,69.930000
2.636,0.001137,49.634519,-21.777337,51.784008,-1216.530000,-1403.920000,33.320000
2.638,0.001140,45.469585,-20.144874,57.696299,-1280.440000,-1442.280000,-77.140000
2.640,0.001145,39.758360,-15.371956,61.119204,-1342.670000,-1420.650000,-224.140000
2.642,0.001137,29.930075,-12.365544,65.585736,-1368.500000,-1430.170000,-408.100000
2.644,0.001138,23.112988,-7.324538,66.557554,-1393.490000,-1420.930000,-486.990000
2.646,0.001490,10.637336,-3.154818,71.651220,-1395.100000,-1422.820000,-517.930000
2.648,0.001199,1.330864,2.455875,73.671452,-1314.180000,-1426.670000,-492.870000
2.650,0.001141,-8.593168,8.152738,67.783098,-1292.060000,-1426.810000,-454.650000
2.652,0.001139,-20.049129,13.476193,69.530455,-1281.490000,-1399.580000,-392.350000
2.654,0.001136,-34.631184,20.068278,63.149010,-1229.760000,-1337.980000,-382.200000
2.656,0.001151,-49.778137,28.378996,61.837296,-1190.770000,-1241.310000,-385.840000
2.658,0.001136,-85.457735,46.407892,55.034571,-1066.030000,-1093.400000,-390.950000
2.660,0.001246,-156.740334,92.270035,41.328588,-971.390000,-919.310000,424.970000
2.662,0.001355,-156.735547,65.963931,58.366518,-738.010000,-692.790000,1603.630000
2.664,0.001258,-35.765769,64.901155,30.710401,-236.740000,-150.220000,827.260000
2.666,0.001225,16.631011,72.350163,26.655575,-23.590000,434.980000,-92.400000
2.668,0.001144,28.149206,54.560630,30.944978,207.130000,758.240000,-774.830000
2.670,0.001141,27.972077,41.443483,43.827548,423.150000,800.310000,-1057.210000
2.672,0.001148,25.224178,38.695584,23.122562,664.370000,670.460000,-693.420000
2.674,0.001140,30.648167,28.709318,21.131054,759.220000,349.160000,15.120000
2.676,0.001137,42.611579,14.333116,12.513950,834.470000,-85.540000,916.230000
2.678,0.001139,54.014880,-6.017611,5.620267,868.280000,-297.150000,1277.010000
2.680,0.001146,58.538860,-21.006585,0.000000,835.100000,-376.040000,1066.310000
2.682,0.001140,53.895198,-34.075859,-2.369704,767.690000,-290.640000,550.480000
2.684,0.001139,32.486482,-48.954725,-13.897474,635.810000,-138.110000,-359.520000
2.686,0.001139,-16.099623,-48.432912,-24.453426,428.610000,117.390000,-916.300000
2.688,0.001152,-70.387378,-27.852395,-12.183628,99.960000,157.150000,-661.850000
2.690,0.001141,-31.696581,-30.236460,-4.600576,6.440000,86.380000,66.430000
2.692,0.001140,4.241530,-26.995472,-13.423533,-113.400000,-3.920000,372.960000
2.694,0.001139,24.391192,-20.116151,-7.587839,-249.620000,-41.720000,411.180000
2.696,0.001146,32.156160,-12.858634,1.273416,-322.000000,-28.910000,220.710000
2.698,0.001124,30.332206,-2.671302,2.757473,-340.060000,18.620000,-50.750000
2.700,0.001126,19.728381,8.004332,6.769214,-349.230000,66.920000,-302.470000
2.702,0.001122,8.602742,13.648535,10.364461,-302.400000,82.740000,-381.500000
2.704,0.001132,1.201607,17.976236,11.465536,-236.810000,71.260000,-294.000000
2.706,0.001124,-1.953210,19.570401,10.599038,-166.880000,45.290000,-178.710000
2.708,0.001138,-0.344684,17.976236,9.091045,-80.360000,28.560000,-36.330000
2.710,0.001140,3.260138,14.337904,7.626137,-24.850000,31.010000,-23.660000
2.712,0.001133,10.072437,8.554869,5.352179,32.130000,71.330000,-102.130000
2.714,0.001176,9.699029,7.233580,4.365999,48.160000,97.090000,-209.580000
2.716,0.001125,8.775084,5.644203,3.671844,71.190000,109.620000,-236.880000
2.718,0.001125,6.458041,5.242072,3.087796,81.200000,90.720000,-200.060000
2.720,0.001133,4.155359,5.711225,3.188328,85.190000,67.760000,-125.300000
2.722,0.001123,3.810675,5.443137,3.044710,88.130000,47.180000,-47.250000
2.724,0.001122,3.083008,6.505914,3.748440,97.720000,43.610000,6.930000
2.726,0.001122,2.982475,8.358591,1.225544,133.630000,39.900000,23.030000
2.728,0.001211,1.254267,7.578264,0.789901,166.810000,55.020000,-1.960000
2.730,0.001127,-2.408002,5.136751,1.369162,179.760000,86.730000,-26.740000
2.732,0.001124,-5.787822,3.542587,1.675548,188.650000,106.680000,-63.630000
2.734,0.001123,-9.301685,3.159605,2.360129,188.790000,162.960000,-107.170000
2.736,0.001133,-12.078307,3.312798,2.340980,188.650000,196.980000,-118.790000
2.738,0.001126,-13.591088,4.064401,3.705355,185.010000,237.930000,-115.780000
2.740,0.001122,-14.524608,4.816004,4.016528,190.540000,284.410000,-101.710000
2.742,0.001124,-14.299605,7.042089,4.150572,187.740000,328.580000,-93.590000
2.744,0.001130,-13.390022,8.684126,5.888354,177.660000,383.110000,-98.000000
2.746,0.001123,-11.331492,11.039468,7.587839,165.620000,410.760000,-109.200000
2.748,0.001136,-6.285699,17.794320,6.850598,131.250000,454.300000,-150.360000
2.750,0.001137,-6.405381,19.307100,13.897474,34.650000,506.100000,-204.120000
2.752,0.001144,-14.471947,23.285330,20.092214,82.460000,571.620000,-268.800000
2.754,0.001146,-17.564530,25.262477,31.787539,167.790000,638.750000,-276.500000
2.756,0.001137,-19.627848,29.882202,28.666233,313.670000,701.190000,-266.840000
2.758,0.001136,-20.408175,29.317303,33.204574,420.350000,765.870000,-161.070000
2.760,0.001144,-17.171973,30.351355,34.200328,506.730000,766.220000,-65.240000
2.762,0.001135,-19.589550,25.363009,44.679684,635.320000,797.230000,94.290000
2.764,0.001136,-10.900637,22.193830,34.334372,802.620000,805.910000,193.620000
2.766,0.001132,-4.691534,18.713478,37.532275,774.620000,844.270000,253.260000
2.768,0.001146,-0.272875,13.246404,43.277011,874.720000,882.840000,241.360000
2.770,0.001133,4.284616,6.611234,39.011545,1049.650000,890.330000,204.470000
2.772,0.001143,5.562819,2.192574,34.348734,1030.960000,921.830000,138.950000
2.774,0.001135,7.836777,-2.513322,36.895567,1015.070000,948.080000,95.620000
2.776,0.001143,9.632007,-7.171345,36.143964,1040.760000,982.870000,49.490000
2.778,0.001186,11.417663,-10.699571,31.552962,1045.590000,993.860000,33.250000
2.780,0.001142,13.332575,-13.638961,28.666233,982.450000,991.830000,30.660000
2.782,0.001136,15.812386,-16.525691,27.881119,926.940000,987.770000,23.240000
2.784,0.001143,18.407092,-18.660817,25.353435,871.990000,965.790000,22.470000
2.786,0.001135,21.289034,-20.523069,21.643293,821.170000,958.090000,3.220000
2.788,0.001136,24.075231,-21.949679,18.608157,718.060000,930.440000,-14.770000
2.790,0.001136,26.641213,-23.007668,16.520903,656.040000,915.040000,-63.630000
2.792,0.001143,28.929533,-23.630014,14.098540,583.730000,880.180000,-86.870000
2.794,0.001138,30.763061,-23.735334,11.369790,489.090000,844.620000,-116.340000
2.796,0.001135,32.108287,-23.620440,9.182003,414.330000,803.810000,-137.690000
2.798,0.001138,33.429576,-23.127350,7.319751,312.340000,739.480000,-142.800000
2.800,0.001144,34.243414,-22.418832,5.969738,244.580000,689.920000,-132.160000
2.802,0.001136,35.344488,-21.810848,4.303765,179.690000,609.070000,-118.160000
2.804,0.001136,36.191837,-20.714561,3.102157,90.300000,546.630000,-103.600000
2.806,0.001136,37.130144,-19.484230,2.283533,26.110000,459.900000,-79.380000
2.808,0.001143,39.212610,-18.182089,1.622888,-53.060000,390.320000,-72.170000
2.810,0.001137,38.283878,-16.453881,1.306927,-111.160000,323.190000,-63.420000
2.812,0.001136,38.384411,-14.673013,1.306927,-167.160000,235.830000,-66.920000
2.814,0.001137,37.972705,-12.638419,2.101616,-233.800000,172.760000,-67.340000
2.816,0.001144,37.134931,-10.656485,2.680877,-276.570000,86.660000,-70.910000
2.818,0.001136,41.893487,-11.082553,13.260766,-282.450000,48.930000,-50.470000
2.820,0.001138,42.396152,-8.952214,0.038298,-198.030000,-90.370000,93.940000
2.822,0.001135,46.374381,-10.412334,0.703730,-271.950000,-234.990000,221.970000
2.824,0.001146,51.099427,-13.394809,7.008578,-303.800000,-334.670000,381.570000
2.826,0.001138,54.072328,-15.156528,3.983017,-296.310000,-492.660000,452.130000
2.828,0.001140,57.509595,-17.114526,4.868664,-391.860000,-571.970000,469.560000
2.830,0.001138,59.108546,-18.129429,6.965492,-479.010000,-672.210000,392.490000
2.832,0.001143,58.739926,-18.416666,12.346395,-566.020000,-751.310000,289.520000
2.834,0.001136,55.345744,-18.019322,16.224092,-609.770000,-803.110000,145.530000
2.836,0.001137,49.782925,-16.070899,17.349103,-662.690000,-885.430000,71.050000
2.838,0.001138,44.670110,-15.094294,22.720431,-751.100000,-944.860000,52.710000
2.840,0.001146,40.773264,-13.993219,28.623147,-782.810000,-1045.870000,107.100000
2.842,0.001136,39.777510,-12.097457,29.738583,-824.950000,-1118.670000,173.460000
2.844,0.001138,36.297157,-10.469781,31.787539,-885.710000,-1190.770000,230.020000
2.846,0.001137,36.124815,-8.727211,35.042890,-940.030000,-1236.690000,202.090000
2.848,0.001146,34.889697,-8.334654,42.175937,-992.810000,-1238.230000,67.830000
2.850,0.001137,28.584849,-6.323997,45.570118,-1020.460000,-1213.310000,-96.740000
2.852,0.001134,21.298609,-3.039923,45.862142,-1026.060000,-1181.390000,-266.280000
2.854,0.001375,14.031518,0.445217,49.213238,-1056.930000,-1142.190000,-424.340000
2.856,0.001202,4.346850,2.877155,51.922839,-1028.090000,-1132.180000,-469.980000
2.858,0.001141,-2.896304,6.697405,52.516462,-927.220000,-1111.600000,-416.430000
2.860,0.001141,-8.459124,12.384693,45.139263,-883.050000,-1116.990000,-315.560000
2.862,0.001978,-11.254895,15.022485,44.033401,-810.880000,-1115.590000,-152.110000
2.864,0.001918,-12.992678,18.296984,41.184970,-788.480000,-1084.440000,-91.700000
2.866,0.001837,-13.816090,18.536348,39.030694,-716.660000,-1033.270000,-85.750000
2.868,0.001927,-15.108656,19.867212,38.599839,-672.490000,-952.140000,-121.450000
2.871,0.001766,-18.871458,22.236916,34.243414,-606.480000,-871.430000,-190.890000
2.873,0.001769,-23.342777,23.017242,30.710401,-536.970000,-770.630000,-237.160000
2.875,0.001763,-29.571029,25.181093,25.482691,-508.830000,-692.370000,-258.370000
2.877,0.001820,-35.062039,25.822588,25.118858,-433.580000,-618.520000,-208.460000
2.879,0.001759,-39.538146,27.282709,23.893314,-360.780000,-522.550000,-159.250000
2.881,0.001752,-42.209448,28.249739,20.322004,-265.580000,-442.890000,-30.660000
2.883,0.001730,-43.109456,29.666774,16.023026,-180.810000,-353.990000,31.430000
2.885,0.001729,-39.255696,29.269430,14.787908,-126.280000,-257.810000,101.570000
2.887,0.001736,-52.368056,25.784290,14.610779,-31.430000,-178.220000,166.250000
2.889,0.001769,-38.216856,14.778333,9.766051,49.700000,5.600000,60.060000
2.891,0.001760,-23.931613,14.783121,10.125097,106.820000,124.530000,-45.780000
2.893,0.001757,-10.958084,16.482605,10.555952,160.790000,154.420000,28.000000
2.895,0.001757,-1.847890,16.161857,11.111277,235.270000,129.150000,256.410000
2.897,0.001793,9.584135,13.136296,9.708604,287.490000,77.280000,413.980000
2.899,0.001731,19.991681,7.932523,6.965492,323.890000,22.540000,484.540000
2.901,0.001732,29.073151,2.020232,4.701109,348.180000,-1.680000,372.820000
2.903,0.001729,33.175850,-2.719175,2.738324,346.780000,17.150000,205.660000
2.905,0.001742,30.786998,-7.147409,0.512239,320.460000,37.170000,-64.680000
2.907,0.001732,24.319382,-9.588922,-1.335651,280.140000,63.770000,-197.610000
2.909,0.001751,15.697491,-11.159150,-2.743111,224.980000,61.810000,-254.380000
2.911,0.001746,7.415497,-12.370332,-3.413331,151.480000,46.690000,-201.390000
2.913,0.001759,-0.440430,-13.021402,-4.222381,89.180000,29.050000,-125.440000
2.915,0.001809,-4.547916,-11.465536,-2.987263,-21.560000,22.750000,-0.210000
2.917,0.001762,-4.169721,-8.602742,-0.569686,-70.420000,18.060000,47.180000
2.919,0.001731,-0.043086,-4.945260,0.373408,-100.450000,45.780000,49.280000
2.921,0.001733,2.259596,-1.153734,1.910125,-135.660000,72.170000,-25.480000
2.923,0.001869,3.815462,3.465991,4.064401,-144.690000,118.440000,-91.210000
2.925,0.001727,3.992592,5.802183,5.572394,-136.990000,154.420000,-154.350000
2.927,0.001785,3.111732,9.057534,6.343146,-114.590000,184.310000,-198.870000
2.929,0.001730,1.469695,12.154904,7.525604,-88.900000,202.510000,-204.190000
2.931,0.001728,0.363833,14.491097,9.742115,-60.480000,211.050000,-179.340000
2.933,0.001732,-0.382982,16.382072,10.196906,-24.640000,224.770000,-154.000000
2.935,0.001743,-0.450004,18.186877,10.962871,32.760000,235.200000,-118.160000
2.937,0.001840,-0.157980,19.115609,12.308097,102.900000,251.300000,-101.360000
2.939,0.001737,-0.220215,19.776254,9.603284,165.970000,269.710000,-87.150000
2.941,0.001730,-2.637791,20.815093,3.925570,275.380000,282.590000,-80.710000
2.943,0.001744,-6.525063,15.424616,10.622974,318.850000,302.750000,-66.780000
2.945,0.001728,-10.421909,13.734706,7.300602,353.220000,343.210000,-69.370000
2.947,0.001745,-12.820336,12.494801,6.841023,339.360000,385.000000,-98.770000
2.949,0.001750,-13.801728,13.050125,9.445303,333.620000,450.800000,-134.260000
2.951,0.001750,-15.017697,14.084178,12.552248,350.420000,502.250000,-171.430000
2.953,0.001754,-15.376743,17.013993,13.212893,350.140000,557.270000,-203.350000
2.955,0.001749,-14.605991,18.478901,16.406009,301.070000,613.060000,-225.890000
2.957,0.001759,-16.391647,22.969369,23.428948,368.970000,673.190000,-226.380000
2.959,0.001754,-16.406009,22.174681,28.091759,436.730000,741.020000,-196.700000
2.961,0.001760,-19.986894,20.173598,33.381703,587.230000,773.360000,-91.560000
2.963,0.001550,-15.860259,19.891148,24.845983,653.730000,800.590000,14.490000
2.965,0.001438,-12.245862,16.286327,33.884368,645.400000,803.810000,116.690000
2.967,0.001470,-6.486764,13.390022,35.449808,742.350000,827.330000,169.890000
2.969,0.001436,-0.689368,10.766593,32.821592,804.020000,863.170000,162.190000
2.971,0.001434,3.518651,5.787822,35.995558,854.000000,895.230000,124.180000
2.973,0.001434,7.046876,1.134585,32.481695,930.930000,930.650000,77.420000
2.975,0.001447,8.966575,-2.230872,29.432197,924.770000,954.940000,29.260000
2.977,0.001464,11.020319,-6.467615,31.418919,913.010000,956.060000,4.830000
2.979,0.001438,10.680422,-10.110735,28.776340,920.570000,955.360000,10.430000
2.981,0.001438,12.293735,-13.136296,25.899185,894.740000,948.010000,22.960000
2.983,0.001449,15.036846,-15.731002,24.175764,822.080000,941.780000,42.280000
2.985,0.001436,18.306559,-17.511870,21.724677,774.200000,918.610000,38.850000
2.987,0.001497,21.260310,-19.335824,18.900181,719.250000,905.590000,19.880000
2.989,0.001448,24.051295,-20.417749,15.257061,664.370000,883.260000,-19.180000
2.991,0.001451,26.607702,-21.327332,12.839485,590.450000,857.150000,-57.540000
2.993,0.001438,28.086972,-21.906593,10.713933,498.260000,830.060000,-102.060000
2.996,0.001605,29.853478,-21.964041,8.267633,407.610000,776.930000,-129.920000
2.997,0.001490,30.739125,-21.672017,6.529850,335.160000,749.280000,-138.600000
3.000,0.001447,31.916796,-21.078394,5.409626,262.150000,683.340000,-135.030000
3.001,0.001440,32.864677,-20.623602,4.710684,172.060000,629.930000,-119.000000
3.003,0.001439,34.071072,-19.804977,3.935144,109.060000,551.460000,-97.650000
3.005,0.001437,35.315765,-18.622519,3.030348,27.160000,487.900000,-80.080000
3.007,0.001453,36.392903,-17.435274,2.503747,-32.270000,424.270000,-67.970000
3.009,0.001437,37.364720,-15.860259,2.388853,-88.410000,339.920000,-63.070000
3.011,0.001439,37.900896,-14.218222,2.446300,-157.710000,277.620000,-65.660000
3.013,0.001438,37.771639,-12.087882,2.709600,-206.150000,193.060000,-67.130000
3.015,0.001446,37.345571,-9.962330,3.274500,-261.940000,131.320000,-68.040000
3.017,0.001442,36.325881,-7.966034,4.337276,-299.320000,67.130000,-64.820000
3.019,0.001440,35.105124,-5.730374,5.419201,-331.450000,-15.890000,-57.400000
3.021,0.001440,33.544471,-3.542587,6.668681,-365.400000,-76.230000,-46.270000
3.023,0.001449,31.136469,-1.728208,7.927736,-384.090000,-150.920000,-37.380000
3.025,0.001440,28.278463,0.062235,9.024023,-399.420000,-199.990000,-33.460000
3.027,0.001447,25.161944,1.785655,10.206481,-406.280000,-261.870000,-30.660000
3.029,0.001435,21.332120,3.317585,11.049042,-413.560000,-291.690000,-32.270000
3.032,0.001457,17.459210,4.954835,12.111818,-416.640000,-320.460000,-31.430000
3.033,0.001439,7.539966,24.515661,5.045793,-407.540000,-343.490000,-26.810000
3.035,0.001437,17.104951,3.226627,12.255437,-160.580000,-377.160000,129.360000
3.037,0.001438,22.452343,2.743111,2.757473,-162.890000,-490.210000,287.070000
3.039,0.001443,27.239623,-2.489386,12.360757,-245.000000,-561.400000,441.420000
3.041,0.001432,32.108287,-6.309635,13.557577,-229.740000,-671.090000,558.110000
3.043,0.001433,34.880122,-7.453795,6.860172,-287.700000,-730.660000,540.820000
3.045,0.001440,40.021661,-7.808054,10.244779,-392.420000,-743.050000,407.470000
3.047,0.001450,46.063208,-9.675093,17.789532,-415.870000,-780.780000,284.200000
3.049,0.001440,44.291915,-10.316588,16.578351,-407.750000,-795.130000,167.370000
3.051,0.001428,43.209989,-9.732540,15.663980,-451.990000,-872.830000,101.080000
3.053,0.001422,44.727557,-11.432025,21.628931,-494.970000,-937.650000,133.420000
3.055,0.001431,45.910015,-12.274586,22.514578,-535.710000,-1032.010000,219.590000
3.057,0.001439,46.383956,-12.676717,22.184256,-579.110000,-1121.890000,240.590000
